timestamp,thigh_acc_x,thigh_acc_y,thigh_acc_z,thigh_gyro_x,thigh_gyro_y,thigh_gyro_z,thigh_mag_x,thigh_mag_y,thigh_mag_z,shank_acc_x,shank_acc_y,shank_acc_z,shank_gyro_x,shank_gyro_y,shank_gyro_z,shank_mag_x,shank_mag_y,shank_mag_z,foot_acc_x,foot_acc_y,foot_acc_z,foot_gyro_x,foot_gyro_y,foot_gyro_z,foot_mag_x,foot_mag_y,foot_mag_z,foot_euler_x,foot_euler_y,foot_euler_z,perturbation_event
745.334,9.0309,3.8523,-1.1875,-0.3656,0.0352,-0.0346,-61.8000,10.6500,22.2000,9.5170,1.5490,0.3783,-0.0176,0.0466,-0.0237,-61.6500,20.1000,-8.7000,3.0600,3.7700,-8.5000,-0.0153,-0.0044,0.0000,-27.0000,-9.8750,20.1875,270.4375,18.1875,-156.5625,0
745.340,9.0309,3.8523,-1.1875,-0.3656,0.0352,-0.0346,-61.3500,10.8000,23.1000,9.4810,1.4509,0.3663,-0.0301,0.0584,-0.0131,-61.9500,19.6500,-7.5000,3.0100,3.7300,-8.5100,-0.0142,-0.0033,0.0022,-27.0000,-9.8750,20.1875,270.4375,18.1875,-156.5625,0
745.345,8.9567,4.0318,-1.1660,-0.4080,0.0592,-0.0232,-61.3500,10.8000,23.1000,9.4810,1.4509,0.3663,-0.0301,0.0584,-0.0131,-61.9500,19.6500,-7.5000,3.0100,3.7300,-8.5100,-0.0142,-0.0033,0.0022,-27.0000,-9.8750,20.1875,270.4375,18.1875,-156.5000,0
745.355,8.9711,4.0869,-1.0894,-0.4221,0.0879,-0.0157,-61.3500,10.8000,23.1000,9.5289,1.4605,0.3735,-0.0488,0.0741,-0.0096,-62.2500,19.5000,-7.3500,3.0300,3.7300,-8.5200,-0.0175,0.0011,0.0065,-27.0000,-9.8750,20.1875,270.4375,18.1875,-156.5000,0
745.359,8.9711,4.0869,-1.0894,-0.4221,0.0879,-0.0157,-61.3500,12.3000,24.1500,9.4978,1.5610,0.4621,-0.0560,0.0791,-0.0056,-62.5500,19.5000,-7.3500,3.0300,3.7300,-8.5200,-0.0185,0.0044,0.0120,-27.2500,-9.8750,20.5625,270.4375,18.1875,-156.5000,0
745.365,9.0668,4.1156,-0.9984,-0.4170,0.1031,-0.0019,-61.3500,12.3000,24.1500,9.4978,1.5610,0.4621,-0.0560,0.0791,-0.0056,-62.5500,20.2500,-8.1000,3.0400,3.7500,-8.5100,-0.0185,0.0044,0.0120,-27.2500,-9.8750,20.5625,270.4375,18.2500,-156.5000,0
745.374,8.9830,4.1084,-0.8811,-0.3770,0.0970,0.0125,-61.5000,7.6500,22.5000,9.4260,1.5562,0.4166,-0.0493,0.0986,-0.0005,-62.5500,20.2500,-8.1000,3.0200,3.7200,-8.5300,-0.0218,0.0055,0.0153,-27.2500,-9.8750,20.5625,270.4375,18.2500,-156.5000,0
745.384,8.9471,3.9959,-0.8116,-0.3355,0.0925,0.0218,-61.6500,10.5000,24.1500,9.3781,1.5275,0.4238,-0.0373,0.1116,0.0051,-64.3500,19.3500,-6.4500,3.0600,3.7300,-8.5100,-0.0251,0.0087,0.0175,-27.2500,-9.8750,20.5625,270.4375,18.2500,-156.5000,0
745.392,9.0788,3.8355,-0.7997,-0.2801,0.0847,0.0314,-60.3000,10.8000,23.8500,9.4332,1.4748,0.5171,0.0027,0.1303,0.0056,-64.3500,19.3500,-6.4500,3.0700,3.7300,-8.5300,-0.0251,0.0076,0.0196,-27.2500,-9.8750,20.5625,270.5000,18.2500,-156.5000,0
745.397,9.0788,3.8355,-0.7997,-0.2801,0.0847,0.0314,-61.2000,10.6500,23.5500,9.4427,1.3910,0.4669,0.0027,0.1303,0.0056,-64.3500,19.3500,-6.4500,3.0700,3.7300,-8.5300,-0.0251,0.0076,0.0196,-27.2500,-9.8750,20.5625,270.5000,18.2500,-156.5000,0
745.405,9.0453,3.7014,-0.7494,-0.2278,0.0935,0.0424,-61.2000,10.6500,23.5500,9.4427,1.3910,0.4669,0.0048,0.1506,0.0077,-62.4000,19.3500,-7.5000,3.0400,3.7400,-8.4700,-0.0262,0.0087,0.0185,-27.2500,-9.8750,20.5625,270.5000,18.2500,-156.5000,0
745.410,9.0525,3.6248,-0.5746,-0.1703,0.0965,0.0538,-61.2000,10.6500,23.5500,9.5433,1.5730,0.6440,-0.0149,0.1527,0.0032,-62.4000,19.3500,-7.5000,3.0400,3.7400,-8.4700,-0.0262,0.0087,0.0185,-27.2500,-9.8750,20.5625,270.5000,18.2500,-156.4375,0
745.415,9.0525,3.6248,-0.5746,-0.1703,0.0965,0.0538,-61.2000,10.6500,23.5500,9.5433,1.5730,0.6440,-0.0149,0.1527,0.0032,-61.0500,21.0000,-8.4000,3.0700,3.7400,-8.5100,-0.0240,0.0087,0.0218,-27.6875,-10.5625,21.0000,270.5000,18.2500,-156.4375,0
745.420,9.0549,3.5051,-0.5459,-0.1031,0.0959,0.0703,-59.7000,10.9500,22.5000,9.5960,1.5155,0.9457,0.0250,0.1708,0.0013,-62.7000,20.8500,-8.4000,3.0700,3.7400,-8.5100,-0.0240,0.0087,0.0218,-27.6875,-10.5625,21.0000,270.5000,18.2500,-156.4375,0
745.425,9.0549,3.5051,-0.5459,-0.1031,0.0959,0.0703,-59.7000,10.9500,22.5000,9.5960,1.5155,0.9457,0.0250,0.1708,0.0013,-62.7000,20.8500,-8.2500,3.0500,3.8400,-8.4700,-0.0196,0.0055,0.0218,-27.6875,-10.5625,21.0000,270.5000,18.2500,-156.4375,0
745.430,9.0956,3.3878,-0.3950,-0.0698,0.1188,0.0869,-60.3000,10.0500,23.8500,9.5768,1.5634,1.0702,0.0248,0.1577,0.0091,-62.7000,20.8500,-8.2500,3.0500,3.8400,-8.4700,-0.0185,0.0098,0.0218,-27.6875,-10.5625,21.0000,270.5000,18.2500,-156.4375,0
745.436,9.0956,3.3878,-0.3950,-0.0698,0.1188,0.0869,-60.3000,10.0500,23.8500,9.5696,1.4078,1.1803,0.0248,0.1577,0.0091,-64.0500,20.2500,-7.6500,3.0000,3.8000,-8.4800,-0.0185,0.0098,0.0218,-27.6875,-10.5625,21.0000,270.5625,18.2500,-156.4375,0
745.445,9.1219,3.3303,-0.2897,-0.0280,0.1324,0.1127,-60.3000,10.5000,22.3500,9.5577,1.3144,1.3575,0.0224,0.1673,0.0112,-62.5500,20.2500,-7.6500,3.0400,3.7700,-8.4900,-0.0153,0.0098,0.0240,-27.6875,-10.5625,21.0000,270.5625,18.2500,-156.4375,0
745.454,9.2249,3.1436,-0.2131,-0.0144,0.1490,0.1348,-60.7500,10.9500,24.3000,9.5672,1.2881,1.2689,0.0410,0.1519,0.0101,-60.1500,20.1000,-8.2500,3.0700,3.8000,-8.4800,-0.0142,0.0153,0.0251,-27.6875,-10.5625,21.0000,270.5625,18.2500,-156.4375,0
745.459,9.2153,3.1292,-0.0479,-0.0176,0.1857,0.1556,-60.7500,10.9500,24.3000,9.5672,1.2881,1.2689,0.0240,0.1410,0.0093,-60.1500,20.1000,-8.2500,3.0700,3.8000,-8.4800,-0.0142,0.0153,0.0251,-27.6875,-10.5625,21.0000,270.5625,18.2500,-156.4375,0
745.464,9.2153,3.1292,-0.0479,-0.0176,0.1857,0.1556,-60.7500,10.9500,24.3000,9.6247,1.1803,1.2234,0.0240,0.1410,0.0093,-60.1500,20.1000,-8.2500,3.1200,3.7400,-8.5200,-0.0087,0.0076,0.0240,-27.0000,-9.5000,20.1875,270.5625,18.2500,-156.4375,0
745.468,9.2775,3.0430,-0.0168,-0.0304,0.2150,0.1767,-60.7500,10.9500,24.3000,9.6247,1.1803,1.2234,0.0285,0.1431,0.0109,-60.1500,20.1000,-8.2500,3.1200,3.7400,-8.5200,-0.0087,0.0076,0.0240,-27.0000,-9.5000,20.1875,270.5625,18.2500,-156.4375,0
745.473,9.2775,3.0430,-0.0168,-0.0304,0.2150,0.1767,-60.7500,10.9500,24.3000,9.5170,0.8715,1.4198,0.0285,0.1431,0.0109,-61.6500,20.1000,-7.5000,3.0700,3.7400,-8.5200,-0.0065,0.0098,0.0240,-27.0000,-9.5000,20.1875,270.5625,18.2500,-156.4375,0
745.478,9.4044,2.8611,-0.0215,-0.0525,0.2316,0.2004,-59.7000,9.4500,23.2500,9.5170,0.8715,1.4198,-0.0064,0.1370,0.0053,-61.6500,20.1000,-7.5000,3.0700,3.7400,-8.5200,-0.0065,0.0098,0.0240,-27.0000,-9.5000,20.1875,270.6250,18.3125,-156.4375,0
745.485,9.4044,2.8611,-0.0215,-0.0525,0.2316,0.2004,-59.7000,9.4500,23.2500,9.5170,0.6704,1.2258,-0.0690,0.1303,-0.0032,-63.0000,19.9500,-6.9000,3.0600,3.8000,-8.5000,-0.0087,0.0120,0.0218,-27.0000,-9.5000,20.1875,270.6250,18.3125,-156.4375,0
745.495,9.4284,2.7725,-0.1484,-0.0474,0.2398,0.2134,-60.6000,12.0000,23.4000,9.6079,0.5028,1.0989,-0.1327,0.1191,-0.0160,-61.0500,21.4500,-6.1500,3.1200,3.6600,-8.5200,-0.0164,0.0098,0.0262,-27.0000,-9.5000,20.1875,270.6250,18.3125,-156.4375,0
745.504,9.4786,2.5881,-0.1484,-0.0264,0.2558,0.2374,-60.4500,10.9500,22.9500,9.6127,0.6249,1.0918,-0.2169,0.1114,-0.0394,-62.4000,19.6500,-7.5000,3.1200,3.6400,-8.5400,-0.0251,0.0065,0.0262,-27.0000,-9.5000,20.1875,270.6250,18.3125,-156.4375,0
745.509,9.5289,2.4995,-0.2083,-0.0216,0.2510,0.2507,-60.6000,11.2500,24.1500,9.6127,0.6249,1.0918,-0.2169,0.1114,-0.0394,-62.4000,19.6500,-7.5000,3.1200,3.6400,-8.5400,-0.0251,0.0065,0.0262,-27.0000,-9.5000,20.1875,270.6250,18.3125,-156.4375,0
745.514,9.5289,2.4995,-0.2083,-0.0216,0.2510,0.2507,-60.6000,11.2500,24.1500,9.6486,1.2905,0.9026,-0.2902,0.0983,-0.0354,-61.6500,20.1000,-8.2500,3.1100,3.6300,-8.5300,-0.0349,0.0044,0.0284,-27.0000,-9.8750,20.8750,270.6250,18.3125,-156.4375,0
745.519,9.4930,2.4541,-0.1173,-0.0357,0.2033,0.2585,-60.6000,11.2500,24.1500,9.6486,1.2905,0.9026,-0.2902,0.0983,-0.0354,-61.6500,20.1000,-8.2500,3.1100,3.6300,-8.5300,-0.0349,0.0044,0.0284,-27.0000,-9.8750,20.8750,270.6250,18.3125,-156.4375,0
745.524,9.4930,2.4541,-0.1173,-0.0357,0.2033,0.2585,-60.6000,11.2500,24.1500,9.5600,2.0399,1.3048,-0.2134,0.1031,-0.0333,-61.0500,19.5000,-7.3500,3.0300,3.6900,-8.5400,-0.0480,-0.0022,0.0305,-27.0000,-9.8750,20.8750,270.6875,18.3125,-156.3750,0
745.529,9.4044,2.4684,-0.2586,-0.0008,0.1732,0.2483,-60.9000,9.7500,24.1500,9.5600,2.0399,1.3048,-0.2134,0.1031,-0.0333,-61.0500,19.5000,-7.3500,3.0300,3.6900,-8.5400,-0.0480,0.0055,0.0338,-27.0000,-9.8750,20.8750,270.6875,18.3125,-156.3750,0
745.536,9.5361,2.4205,-0.1772,-0.0003,0.1487,0.2249,-59.7000,10.2000,22.5000,9.4451,2.1763,1.5251,-0.1178,0.1167,-0.0325,-61.0500,19.5000,-7.3500,3.0600,3.7900,-8.5300,-0.0480,0.0055,0.0338,-27.0000,-9.8750,20.8750,270.6875,18.3125,-156.3750,0
745.545,9.5361,2.4205,-0.1772,-0.0003,0.1487,0.2249,-59.8500,11.2500,24.9000,9.3996,1.6975,1.6448,-0.0160,0.1263,-0.0346,-61.9500,20.4000,-6.4500,3.0700,3.8900,-8.4500,-0.0447,0.0164,0.0349,-27.0000,-9.8750,20.8750,270.6875,18.3125,-156.3750,0
745.553,9.5457,2.4110,-0.0383,-0.0298,0.1069,0.1988,-59.8500,11.2500,24.9000,9.4499,1.2809,1.7861,-0.0104,0.1074,-0.0357,-61.9500,20.4000,-6.4500,3.1400,3.8400,-8.3700,-0.0338,0.0185,0.0316,-27.0000,-9.8750,20.8750,270.7500,18.3750,-156.3750,0
745.558,9.4810,2.2075,0.1317,-0.1143,0.1103,0.1711,-60.7500,10.9500,25.0500,9.4499,1.2809,1.7861,-0.0104,0.1074,-0.0357,-61.9500,20.4000,-6.4500,3.1400,3.8400,-8.3700,-0.0338,0.0185,0.0316,-27.0000,-9.8750,20.8750,270.7500,18.3750,-156.3750,0
745.563,9.4810,2.2075,0.1317,-0.1143,0.1103,0.1711,-60.7500,10.9500,25.0500,9.6582,1.2067,1.6807,-0.0594,0.0669,-0.0173,-61.2000,18.4500,-8.7000,3.1500,3.8300,-8.4100,-0.0196,0.0044,0.0284,-27.2500,-9.5000,20.5625,270.7500,18.3750,-156.3125,0
745.567,9.4236,1.9896,0.3783,-0.2201,0.1367,0.1551,-60.7500,10.9500,25.0500,9.6582,1.2067,1.6807,-0.0594,0.0669,-0.0173,-61.2000,18.4500,-8.7000,3.1500,3.8300,-8.4100,-0.0196,0.0044,0.0284,-27.2500,-9.5000,20.5625,270.7500,18.3750,-156.3125,0
745.572,9.4236,1.9896,0.3783,-0.2201,0.1367,0.1551,-60.7500,10.9500,25.0500,9.6630,0.9984,1.6424,-0.0690,0.0429,-0.0266,-61.0500,20.2500,-8.1000,3.1200,3.7900,-8.4300,-0.0055,-0.0109,0.0229,-27.2500,-9.5000,20.5625,270.7500,18.3750,-156.3750,0
745.577,9.3494,1.8747,0.6440,-0.3325,0.1812,0.1588,-60.7500,10.9500,25.0500,9.6630,0.9984,1.6424,-0.0690,0.0429,-0.0266,-61.0500,20.2500,-8.1000,3.1200,3.7900,-8.4300,-0.0055,-0.0109,0.0229,-27.2500,-9.5000,20.5625,270.7500,18.3750,-156.3750,0
745.585,9.3494,1.6520,0.7805,-0.4231,0.2241,0.1756,-60.6000,10.5000,23.8500,9.7683,0.8978,1.6496,-0.0640,0.0216,-0.0272,-61.6500,22.0500,-7.5000,3.1100,3.7600,-8.4700,0.0076,-0.0175,0.0185,-27.2500,-9.5000,20.5625,270.7500,18.3750,-156.3750,0
745.595,9.1243,1.5060,0.8140,-0.3677,0.2238,0.1953,-60.6000,12.3000,23.8500,9.7181,0.6273,1.2857,-0.1018,0.0040,-0.0408,-63.0000,20.7000,-7.3500,3.0800,3.7000,-8.5500,0.0153,-0.0251,0.0142,-27.2500,-9.5000,20.5625,270.8125,18.3750,-156.3750,0
745.604,9.1794,1.7573,0.3759,-0.2430,0.4423,0.2190,-58.0500,10.0500,25.2000,9.5696,1.0008,1.2354,-0.1074,0.0016,-0.0442,-63.0000,20.7000,-7.3500,3.1100,3.6300,-8.5200,0.0109,-0.0273,0.0185,-27.2500,-9.5000,20.5625,270.8125,18.3125,-156.3750,0
745.608,9.1794,1.7573,0.3759,-0.2430,0.4423,0.2190,-58.0500,10.0500,25.2000,9.7037,1.5921,1.0223,-0.1074,0.0016,-0.0442,-63.0000,20.7000,-7.3500,3.1100,3.6300,-8.5200,0.0109,-0.0273,0.0185,-27.2500,-9.5000,20.5625,270.8125,18.3125,-156.3750,0
745.613,10.0940,2.0949,0.4262,-0.0869,0.3256,0.1980,-60.0000,11.4000,25.0500,9.7037,1.5921,1.0223,-0.0890,-0.0133,-0.0464,-63.3000,19.0500,-8.4000,3.0700,3.6200,-8.5500,-0.0022,-0.0273,0.0207,-27.6875,-8.7500,21.6875,270.8125,18.3125,-156.3750,0
745.618,10.0940,2.0949,0.4262,-0.0869,0.3256,0.1980,-60.0000,11.4000,25.0500,9.5002,1.8675,1.2953,-0.0890,-0.0133,-0.0464,-63.3000,19.0500,-8.4000,3.0700,3.6200,-8.5500,-0.0022,-0.0273,0.0207,-27.6875,-8.7500,21.6875,270.8125,18.3125,-156.3750,0
745.623,9.3302,2.4756,0.5674,0.0096,0.2936,0.1889,-60.0000,11.4000,25.0500,9.5002,1.8675,1.2953,0.0330,-0.0133,-0.0488,-63.3000,19.0500,-8.4000,3.0300,3.7900,-8.5600,-0.0044,-0.0218,0.0218,-27.6875,-8.7500,21.6875,270.8125,18.3125,-156.3750,0
745.628,9.3302,2.4756,0.5674,0.0096,0.2936,0.1889,-60.0000,11.4000,25.0500,9.3972,1.9417,1.4413,0.0616,-0.0104,-0.0440,-63.3000,19.0500,-8.4000,3.0300,3.7900,-8.5600,-0.0044,-0.0218,0.0218,-27.6875,-8.7500,21.6875,270.8125,18.3125,-156.3750,0
745.635,9.6438,2.9329,0.6991,0.1490,0.2678,0.1359,-57.9000,10.2000,25.3500,9.3972,1.9417,1.4413,0.0616,-0.0104,-0.0440,-61.2000,21.6000,-6.0000,3.0900,3.8100,-8.4800,-0.0131,-0.0153,0.0218,-27.6875,-8.7500,21.6875,270.8750,18.3125,-156.3750,0
745.645,10.2520,3.0670,0.5243,0.2177,0.3754,0.0642,-59.7000,11.7000,26.1000,9.5888,1.5706,1.4820,0.1159,-0.0131,-0.0400,-62.4000,19.6500,-7.5000,3.0900,3.8400,-8.5000,-0.0175,-0.0098,0.0240,-27.6875,-8.7500,21.6875,270.8750,18.3125,-156.3750,0
745.655,10.2879,3.0981,0.3926,0.2507,0.2854,0.0101,-58.9500,10.2000,24.7500,9.7492,1.2163,1.6520,0.1108,-0.0322,-0.0370,-62.2500,19.0500,-8.1000,3.0600,3.8400,-8.4900,-0.0076,-0.0076,0.0196,-27.6875,-8.7500,21.6875,270.8750,18.3125,-156.3750,0
745.660,10.2879,3.0981,0.3926,0.2507,0.2854,0.0101,-58.9500,10.2000,24.7500,9.7181,1.1061,1.6520,0.0469,-0.0514,-0.0314,-62.2500,19.0500,-8.1000,3.0600,3.8400,-8.4900,-0.0076,-0.0109,0.0164,-27.6875,-10.5625,21.6875,270.8750,18.3125,-156.3750,0
745.666,9.7899,2.9951,0.2873,0.2289,0.1857,-0.0077,-57.3000,11.5500,26.2500,9.6319,1.2522,1.6065,0.0469,-0.0514,-0.0314,-61.6500,20.1000,-7.2000,3.0900,3.7300,-8.5200,-0.0076,-0.0109,0.0164,-27.6875,-10.5625,21.6875,270.8750,18.3125,-156.3750,0
745.675,9.3015,3.0071,0.4166,0.2161,0.1756,0.0005,-57.4500,10.2000,26.8500,9.4571,1.6089,1.3910,-0.0083,-0.0749,-0.0155,-61.9500,20.1000,-7.9500,3.0900,3.7100,-8.5200,-0.0175,-0.0044,0.0185,-27.6875,-10.5625,21.6875,270.8750,18.3125,-156.3750,0
745.685,9.1051,2.8994,0.5578,0.2137,0.2129,0.0184,-57.4500,10.2000,26.8500,9.3350,2.0279,1.1803,-0.0136,-0.0895,-0.0136,-61.9500,21.3000,-8.7000,3.1100,3.7300,-8.5300,-0.0196,-0.0055,0.0185,-27.6875,-10.5625,21.6875,270.8750,18.3125,-156.3750,0
745.693,9.1075,3.1843,0.8930,0.2022,0.2563,0.0384,-58.9500,10.9500,25.3500,9.3350,2.0279,1.1803,0.0136,-0.0850,-0.0109,-61.9500,21.3000,-8.7000,3.1200,3.7800,-8.4800,-0.0196,-0.0033,0.0175,-27.6875,-10.5625,21.6875,270.9375,18.3125,-156.3750,0
745.697,9.1075,3.1843,0.8930,0.2022,0.2563,0.0384,-58.9500,10.9500,25.3500,9.6319,2.1093,1.1660,0.0706,-0.0821,-0.0165,-61.9500,21.3000,-8.7000,3.1200,3.7800,-8.4800,-0.0196,-0.0033,0.0175,-27.6875,-10.5625,21.6875,270.9375,18.3125,-156.3750,0
745.706,9.3877,3.3423,0.9816,0.1735,0.2230,0.0671,-57.7500,10.8000,25.6500,9.7492,1.8459,1.4629,0.1545,-0.0845,-0.0083,-60.7500,21.0000,-6.6000,3.0600,3.8600,-8.4600,-0.0142,-0.0044,0.0120,-27.6875,-10.5625,21.6875,270.9375,18.3125,-156.3750,0
745.710,9.3278,3.4381,0.6776,0.0893,0.1575,0.0874,-57.7500,10.8000,25.6500,9.7492,1.8459,1.4629,0.1545,-0.0845,-0.0083,-60.7500,21.0000,-6.6000,3.0600,3.8600,-8.4600,-0.0131,-0.0055,0.0087,-27.0000,-9.5000,20.5625,270.9375,18.3125,-156.3750,0
745.716,9.3278,3.4381,0.6776,0.0893,0.1575,0.0874,-57.4500,11.4000,25.3500,9.6606,1.4389,1.5658,0.1569,-0.0701,-0.0120,-62.4000,21.6000,-8.2500,3.0000,3.9100,-8.5000,-0.0131,-0.0055,0.0087,-27.0000,-9.5000,20.5625,270.9375,18.3125,-156.3125,0
745.725,9.1363,3.1364,0.5076,0.0418,0.1956,0.1047,-58.6500,10.9500,25.3500,9.5648,1.2881,1.3623,0.0975,-0.0813,-0.0093,-61.6500,20.4000,-8.7000,3.0900,3.7600,-8.5100,-0.0164,0.0000,0.0120,-27.0000,-9.5000,20.5625,270.9375,18.3125,-156.3125,0
745.735,9.0046,3.2441,0.3615,0.0432,0.2190,0.1516,-58.6500,10.9500,25.3500,9.5912,1.5754,1.0558,0.0139,-0.0871,-0.0027,-60.9000,20.4000,-7.5000,3.1100,3.7200,-8.5000,-0.0218,0.0022,0.0153,-27.0000,-9.5000,20.5625,270.9375,18.3750,-156.3125,0
745.742,8.6790,3.1723,0.4429,0.0877,0.2454,0.1993,-58.6500,10.6500,25.3500,9.5170,1.8172,0.9744,0.0139,-0.0871,-0.0027,-60.9000,20.4000,-7.5000,3.1000,3.7200,-8.5100,-0.0218,0.0022,0.0142,-27.0000,-9.5000,20.5625,270.9375,18.3750,-156.3125,0
745.747,8.6790,3.1723,0.4429,0.0877,0.2454,0.1993,-58.6500,10.6500,25.3500,9.5170,1.8172,0.9744,0.0208,-0.0999,0.0005,-61.6500,20.8500,-9.0000,3.1000,3.7200,-8.5100,-0.0218,0.0022,0.0142,-27.0000,-9.5000,20.5625,270.9375,18.3750,-156.3125,0
745.756,8.8657,2.9784,0.2825,0.1324,0.3533,0.2625,-57.7500,11.2500,27.0000,9.4092,1.9537,0.9529,0.0586,-0.0815,-0.0021,-62.4000,20.1000,-8.2500,3.0800,3.7600,-8.5100,-0.0218,0.0033,0.0120,-27.0000,-9.5000,20.5625,270.9375,18.3750,-156.3125,0
745.761,9.2488,3.2082,0.4788,0.2225,0.3291,0.2899,-57.7500,11.2500,27.0000,9.4092,1.9537,0.9529,0.0586,-0.0815,-0.0021,-62.4000,20.1000,-8.2500,3.0800,3.7600,-8.5100,-0.0218,0.0033,0.0120,-27.0000,-9.5000,20.5625,270.9375,18.3750,-156.3125,0
745.766,9.2488,3.2082,0.4788,0.2225,0.3291,0.2899,-56.4000,10.6500,25.8000,9.3565,2.0087,0.6871,0.0997,-0.0690,0.0040,-62.4000,20.1000,-8.2500,3.1000,3.7800,-8.4800,-0.0240,0.0065,0.0120,-28.0625,-10.2500,19.3750,271.0000,18.3750,-156.3125,0
745.770,9.1818,3.3710,0.5483,0.3277,0.2763,0.3080,-56.5500,12.0000,27.3000,9.3565,2.0087,0.6871,0.0997,-0.0690,0.0040,-62.4000,20.1000,-8.2500,3.1000,3.7800,-8.4800,-0.0240,0.0065,0.0120,-28.0625,-10.2500,19.3750,271.0000,18.3750,-156.3125,0
745.776,9.1818,3.3710,0.5483,0.3277,0.2763,0.3080,-56.5500,12.0000,27.3000,9.2919,1.8914,0.6512,0.1522,-0.0544,0.0176,-61.8000,19.9500,-8.1000,3.1000,3.7600,-8.4700,-0.0251,0.0087,0.0131,-28.0625,-10.2500,19.3750,271.0000,18.3750,-156.3125,0
745.780,9.2823,3.4764,0.7614,0.4170,0.3006,0.3174,-57.1500,12.1500,25.8000,9.2919,1.8914,0.6512,0.1522,-0.0544,0.0176,-61.8000,19.9500,-8.1000,3.1000,3.7600,-8.4700,-0.0218,0.0087,0.0087,-28.0625,-10.2500,19.3750,271.0000,18.3750,-156.2500,0
745.786,9.2823,3.4764,0.7614,0.4170,0.3006,0.3174,-57.1500,12.1500,25.8000,9.2919,1.7406,0.3998,0.1458,-0.0392,0.0224,-61.8000,19.9500,-8.1000,3.1100,3.8200,-8.5000,-0.0218,0.0087,0.0087,-28.0625,-10.2500,19.3750,271.0000,18.3750,-156.2500,0
745.795,9.5481,3.5267,0.8715,0.4751,0.2766,0.3008,-57.1500,12.1500,25.8000,9.5241,1.5945,0.3496,0.1500,-0.0234,0.0349,-61.5000,21.0000,-8.8500,3.1000,3.7800,-8.4300,-0.0164,0.0065,0.0087,-28.0625,-10.2500,19.3750,271.0000,18.3750,-156.2500,0
745.805,9.7540,3.6224,0.5028,0.5185,0.1892,0.2169,-55.2000,11.5500,26.7000,9.3518,1.7502,0.3519,0.1239,-0.0171,0.0394,-61.9500,20.1000,-7.9500,3.0300,3.7900,-8.5100,-0.0055,0.0011,0.0033,-28.0625,-10.2500,19.3750,271.0000,18.3750,-156.2500,0
745.810,10.0197,3.8307,0.4310,0.5561,0.2070,0.1244,-55.2000,10.8000,27.0000,9.4906,1.7095,0.4046,0.1239,-0.0171,0.0394,-61.9500,20.1000,-7.9500,3.0300,3.7900,-8.5100,-0.0033,0.0011,0.0011,-27.2500,-9.8750,21.3750,271.0000,18.3750,-156.2500,0
745.816,10.2807,3.5099,0.2155,0.5473,0.1665,0.0136,-55.2000,10.8000,27.0000,9.4906,1.7095,0.4046,0.1037,0.0096,0.0408,-61.5000,20.7000,-8.1000,3.0700,3.7100,-8.4700,-0.0033,0.0011,0.0011,-27.2500,-9.8750,21.3750,271.0000,18.3750,-156.2500,0
745.825,10.2807,3.5099,0.2155,0.5473,0.1665,0.0136,-54.4500,10.8000,26.7000,9.6175,1.6017,0.9409,0.1386,0.0109,0.0424,-61.6500,19.6500,-9.0000,3.0000,3.8400,-8.4800,0.0033,0.0011,0.0000,-27.2500,-9.8750,21.3750,271.0000,18.3750,-156.2500,0
745.835,9.9862,3.3686,-0.7518,0.5015,0.1018,-0.1167,-55.8000,12.0000,28.5000,9.4834,1.2761,1.3719,0.1324,0.0330,0.0378,-61.6500,19.6500,-9.0000,3.1000,3.7200,-8.5000,0.0098,-0.0011,-0.0022,-27.2500,-9.8750,21.3750,271.0000,18.3750,-156.2500,0
745.845,9.0429,3.1173,-1.1899,0.5015,0.1018,-0.1167,-55.8000,12.0000,28.5000,9.3446,1.5371,1.1756,0.0746,0.0429,0.0496,-63.4500,20.4000,-8.2500,3.1200,3.6500,-8.4700,0.0065,0.0033,0.0000,-27.2500,-9.8750,21.3750,271.0000,18.3750,-156.2500,0
745.851,8.8370,2.5139,-0.2777,0.2942,0.0943,-0.0346,-54.9000,11.4000,27.1500,9.4643,1.9968,0.8811,0.0640,0.0325,0.0634,-63.4500,20.4000,-8.2500,3.1200,3.6500,-8.4700,0.0142,0.0011,-0.0011,-27.2500,-9.8750,21.3750,271.0000,18.3750,-156.2500,0
745.857,8.7580,1.6999,0.7614,0.2918,0.3224,0.0823,-54.9000,11.4000,27.1500,9.4643,1.9968,0.8811,0.0640,0.0325,0.0634,-63.4500,20.4000,-8.2500,3.1200,3.6500,-8.4700,0.0142,0.0011,-0.0011,-27.2500,-9.8750,21.3750,271.0000,18.3750,-156.2500,0
745.861,8.7580,1.6999,0.7614,0.2918,0.3224,0.0823,-55.5000,12.0000,28.0500,9.3709,2.0925,0.6823,0.0997,0.0211,0.0634,-63.4500,20.4000,-8.2500,3.0800,3.8000,-8.4700,0.0218,-0.0022,-0.0055,-27.2500,-10.2500,20.8750,271.0000,18.3750,-156.3125,0
745.866,9.2368,1.5060,0.6919,0.4634,0.3802,0.1290,-55.5000,12.0000,28.0500,9.3709,2.0925,0.6823,0.0997,0.0211,0.0634,-61.5000,21.9000,-8.1000,3.0800,3.8000,-8.4700,0.0218,-0.0022,-0.0055,-27.2500,-10.2500,20.8750,271.0000,18.3750,-156.3125,0
745.876,9.2512,1.9872,0.2586,0.4767,0.2654,0.1138,-55.2000,12.0000,25.6500,9.4308,1.8268,0.6800,0.1407,0.0258,0.0719,-63.0000,21.0000,-8.4000,3.0900,3.8100,-8.4700,0.0273,-0.0022,-0.0076,-27.2500,-10.2500,20.8750,271.0000,18.3750,-156.3125,0
745.885,8.8585,2.1237,0.1317,0.3030,0.1572,0.0885,-55.8000,11.2500,28.0500,9.4260,1.6161,0.7901,0.1601,0.0314,0.0837,-61.5000,20.7000,-8.1000,3.0700,3.8300,-8.4800,0.0349,-0.0120,-0.0098,-27.2500,-10.2500,20.8750,271.0000,18.3750,-156.3125,0
745.894,9.2009,1.8842,-0.0503,0.1039,0.2467,0.0911,-53.5500,10.6500,27.1500,9.4691,1.5227,0.7733,0.1444,0.0338,0.0839,-61.5000,20.7000,-8.1000,3.0900,3.7300,-8.4900,0.0371,-0.0109,-0.0098,-27.2500,-10.2500,20.8750,271.0000,18.3750,-156.3750,0
745.899,9.2009,1.8842,-0.0503,0.1039,0.2467,0.0911,-53.5500,10.6500,27.1500,9.4571,1.3479,0.8882,0.1386,0.0370,0.0802,-61.6500,21.3000,-6.7500,3.0900,3.7300,-8.4900,0.0371,-0.0109,-0.0098,-27.2500,-10.2500,20.8750,270.9375,18.3125,-156.3750,0
745.906,9.3182,1.8316,0.2945,0.1324,0.2918,0.1039,-53.5500,10.6500,27.1500,9.4834,1.5179,0.6871,0.1386,0.0370,0.0802,-62.4000,22.8000,-9.0000,3.1000,3.7300,-8.4800,0.0393,-0.0109,-0.0142,-27.2500,-10.2500,20.8750,270.9375,18.3125,-156.3750,0
745.911,9.3182,1.8316,0.2945,0.1324,0.2918,0.1039,-54.3000,12.9000,28.2000,9.4834,1.5179,0.6871,0.1159,0.0410,0.0810,-62.4000,22.8000,-9.0000,3.1000,3.7300,-8.4800,0.0393,-0.0109,-0.0142,-27.2500,-9.5000,20.5625,270.9375,18.3125,-156.3750,0
745.916,9.4954,2.1955,0.4453,0.3008,0.2233,0.1111,-54.3000,12.9000,28.2000,9.4499,1.8220,0.5124,0.1159,0.0410,0.0810,-61.0500,20.7000,-7.6500,3.0700,3.7200,-8.4800,0.0458,-0.0120,-0.0164,-27.2500,-9.5000,20.5625,270.9375,18.3125,-156.3750,0
745.921,9.4954,2.1955,0.4453,0.3008,0.2233,0.1111,-54.4500,12.7500,28.8000,9.4499,1.8220,0.5124,0.0869,0.0458,0.0911,-61.0500,20.7000,-7.6500,3.0700,3.7200,-8.4800,0.0458,-0.0120,-0.0164,-27.2500,-9.5000,20.5625,270.9375,18.3125,-156.4375,0
745.926,9.4164,2.8898,0.4621,0.3728,0.1314,0.0813,-54.4500,12.7500,28.8000,9.5074,1.8411,0.5842,0.0869,0.0458,0.0911,-61.0500,20.7000,-7.6500,3.0400,3.7900,-8.5200,0.0556,-0.0120,-0.0185,-27.2500,-9.5000,20.5625,270.9375,18.3125,-156.4375,0
745.930,9.4164,2.8898,0.4621,0.3728,0.1314,0.0813,-52.9500,11.5500,28.5000,9.5074,1.8411,0.5842,0.0994,0.0456,0.0959,-61.0500,20.7000,-7.6500,3.0400,3.7900,-8.5200,0.0578,-0.0076,-0.0164,-27.2500,-9.5000,20.5625,270.9375,18.3125,-156.4375,0
745.936,9.4379,3.1532,0.4142,0.2419,0.1652,0.0386,-52.9500,11.5500,28.5000,9.4403,1.6209,0.6153,0.1604,0.0573,0.0807,-61.2000,21.3000,-9.0000,3.0000,3.9300,-8.4900,0.0578,-0.0076,-0.0164,-27.2500,-9.5000,20.5625,270.9375,18.3125,-156.5000,0
745.946,9.5888,2.9377,0.4070,0.1362,0.1362,-0.0016,-53.8500,12.9000,27.6000,9.3996,1.2689,0.5531,0.1660,0.0799,0.0845,-61.8000,20.2500,-8.4000,3.0600,3.9300,-8.4400,0.0600,-0.0011,-0.0120,-27.2500,-9.5000,20.5625,270.9375,18.3125,-156.5000,0
745.954,9.5648,2.7031,0.3903,0.2372,0.0381,-0.0099,-53.8500,12.9000,27.6000,9.4284,1.3024,0.5004,0.1660,0.0799,0.0845,-61.8000,20.2500,-8.4000,3.0500,3.7700,-8.5200,0.0676,-0.0011,-0.0109,-27.2500,-9.5000,20.5625,270.8750,18.3125,-156.5000,0
745.959,9.5648,2.7031,0.3903,0.2372,0.0381,-0.0099,-53.8500,12.9000,27.6000,9.4284,1.3024,0.5004,0.1543,0.0959,0.0981,-60.4500,20.1000,-7.9500,3.0500,3.7700,-8.5200,0.0676,-0.0011,-0.0109,-27.2500,-9.5000,20.5625,270.8750,18.3125,-156.5000,0
745.964,9.7205,2.8563,0.5866,0.4559,0.0421,-0.0336,-53.8500,12.9000,27.6000,9.3853,1.4246,0.9098,0.1543,0.0959,0.0981,-60.4500,20.1000,-7.9500,3.0200,3.6000,-8.5500,0.0720,0.0000,-0.0087,-27.0000,-10.5625,21.6875,270.8750,18.3125,-156.5625,0
745.968,9.7205,2.8563,0.5866,0.4559,0.0421,-0.0336,-51.9000,11.5500,28.5000,9.3853,1.4246,0.9098,0.1567,0.1053,0.0957,-61.9500,20.1000,-7.2000,3.0200,3.6000,-8.5500,0.0720,0.0000,-0.0087,-27.0000,-10.5625,21.6875,270.8750,18.3125,-156.5625,0
745.973,9.8689,2.6408,0.7661,0.5044,0.0413,-0.0943,-51.9000,11.5500,28.5000,9.4547,1.3264,1.5036,0.1567,0.1053,0.0957,-61.9500,20.1000,-7.2000,3.0400,3.6800,-8.5000,0.0731,0.0044,-0.0098,-27.0000,-10.5625,21.6875,270.8750,18.3125,-156.6250,0
745.978,9.8689,2.6408,0.7661,0.5044,0.0413,-0.0943,-52.3500,10.9500,28.6500,9.4547,1.3264,1.5036,0.1836,0.1108,0.0805,-61.9500,21.3000,-6.7500,3.0400,3.6800,-8.5000,0.0731,0.0044,-0.0098,-27.0000,-10.5625,21.6875,270.8750,18.3125,-156.6250,0
745.986,9.6702,1.6448,0.8140,0.4660,0.0304,-0.1108,-52.3500,10.9500,28.6500,9.6486,0.9577,1.5012,0.1892,0.1063,0.0709,-61.8000,22.2000,-7.6500,3.0700,3.6600,-8.5200,0.0753,0.0044,-0.0087,-27.0000,-10.5625,21.6875,270.8750,18.3125,-156.6875,0
745.996,9.5241,0.9122,0.7757,0.4788,0.0280,-0.0981,-51.7500,12.4500,28.2000,9.7205,0.7805,1.5945,0.1559,0.0922,0.0648,-61.8000,22.2000,-7.6500,3.1100,3.5800,-8.5200,0.0829,0.0022,-0.0109,-27.0000,-10.5625,21.6875,270.8750,18.3125,-156.6875,0
746.006,9.2895,0.7901,0.6129,0.4956,0.0711,-0.0799,-51.9000,13.0500,28.0500,9.8330,0.8236,1.5826,0.0890,0.0687,0.0727,-61.8000,22.2000,-7.6500,3.0900,3.5000,-8.5000,0.0829,0.0000,-0.0131,-27.0000,-10.5625,21.6875,270.8750,18.3125,-156.7500,0
746.011,9.7564,1.4653,0.2586,0.5473,0.1178,-0.0661,-51.9000,13.0500,28.0500,9.8330,0.8236,1.5826,0.0890,0.0687,0.0727,-61.6500,20.4000,-8.2500,3.0900,3.5000,-8.5000,0.0829,0.0000,-0.0131,-27.0000,-10.5625,21.6875,270.8125,18.3125,-156.7500,0
746.016,9.7564,1.4653,0.2586,0.5473,0.1178,-0.0661,-51.9000,13.0500,28.0500,9.8186,0.9864,1.6975,0.0608,0.0464,0.0600,-61.6500,20.4000,-8.2500,3.0700,3.4300,-8.5800,0.0796,-0.0055,-0.0142,-27.0000,-9.8750,21.3750,270.8125,18.3125,-156.7500,0
746.020,9.8761,2.2649,0.7446,0.4535,0.1095,-0.0485,-52.0500,12.9000,29.7000,9.8186,0.9864,1.6975,0.0608,0.0464,0.0600,-62.5500,21.0000,-9.1500,3.0700,3.4300,-8.5800,0.0796,-0.0055,-0.0142,-27.0000,-9.8750,21.3750,270.8125,18.3125,-156.7500,0
746.025,9.8761,2.2649,0.7446,0.4535,0.1095,-0.0485,-52.0500,12.9000,29.7000,9.7827,1.0008,1.7502,0.0562,0.0107,0.0554,-62.5500,21.0000,-9.1500,3.0600,3.5400,-8.5900,0.0687,-0.0022,-0.0142,-27.0000,-9.8750,21.3750,270.8125,18.3125,-156.8125,0
746.030,9.5600,2.7294,1.2067,0.5020,0.0919,-0.0187,-52.3500,12.9000,28.2000,9.7827,1.0008,1.7502,0.0562,0.0107,0.0554,-60.9000,20.4000,-6.7500,3.0600,3.5400,-8.5900,0.0535,-0.0011,-0.0142,-27.0000,-9.8750,21.3750,270.8125,18.3125,-156.8125,0
746.037,9.5600,2.7294,1.2067,0.5020,0.0919,-0.0187,-50.8500,13.8000,28.8000,9.7827,1.0463,1.7310,0.0648,-0.0019,0.0546,-62.2500,21.0000,-6.6000,3.0900,3.5000,-8.5700,0.0535,-0.0011,-0.0142,-27.0000,-9.8750,21.3750,270.8125,18.3125,-156.8750,0
746.046,9.6654,2.8850,1.3934,0.3349,-0.1951,0.0192,-51.0000,13.9500,28.9500,9.8665,1.4198,1.6400,0.0328,-0.0282,0.0653,-61.8000,21.0000,-7.6500,3.0400,3.4700,-8.6100,0.0393,0.0055,-0.0142,-27.0000,-9.8750,21.3750,270.8125,18.3125,-156.8750,0
746.056,9.5768,3.0478,1.4078,0.5415,-0.1098,0.0365,-51.0000,13.9500,28.9500,9.7731,1.7741,1.7358,0.0733,-0.0413,0.0674,-61.8000,21.0000,-7.6500,3.0100,3.5000,-8.6100,0.0229,0.0022,-0.0109,-27.0000,-9.8750,21.3750,270.8125,18.3125,-156.8750,0
746.061,9.6941,3.2082,1.5371,0.7949,-0.2603,0.0125,-51.0000,13.9500,28.9500,9.7061,1.7837,1.8028,0.1260,-0.0557,0.0541,-61.0500,21.4500,-8.4000,3.0100,3.5000,-8.6100,0.0098,0.0120,-0.0087,-27.2500,-9.5000,20.8750,270.8125,18.3125,-156.8750,0
746.067,9.6941,3.2082,1.5371,0.7949,-0.2603,0.0125,-51.0000,13.9500,28.9500,9.7061,1.7837,1.8028,0.1260,-0.0557,0.0541,-61.0500,21.4500,-8.4000,3.0600,3.6400,-8.5100,0.0098,0.0120,-0.0087,-27.2500,-9.5000,20.8750,270.8125,18.3125,-156.8750,0
746.076,8.4731,3.0574,1.8148,0.6446,0.0658,0.0205,-52.9500,12.7500,29.1000,9.6869,1.9249,1.4940,0.1428,-0.0807,0.0589,-61.0500,21.4500,-8.4000,3.0600,3.6700,-8.5100,0.0022,0.0229,-0.0055,-27.2500,-9.5000,20.8750,270.8125,18.3125,-156.8750,0
746.086,9.8426,3.1220,1.6568,0.5945,0.0834,0.0069,-53.4000,12.7500,28.0500,9.7612,1.9225,1.6975,0.2025,-0.0954,0.0655,-63.1500,21.6000,-8.7000,3.0400,3.7500,-8.5200,0.0000,0.0185,-0.0055,-27.2500,-9.5000,20.8750,270.7500,18.3125,-156.8750,0
746.095,9.4978,3.0143,1.5275,0.6486,0.0685,0.0152,-52.2000,13.0500,28.0500,9.7923,1.5778,1.7238,0.2707,-0.1082,0.0653,-63.1500,21.6000,-8.7000,3.0600,3.7800,-8.5300,0.0076,0.0175,-0.0044,-27.2500,-9.5000,20.8750,270.7500,18.3125,-156.8750,0
746.100,9.2320,2.7988,1.1779,0.6315,0.1892,0.0309,-52.2000,13.0500,28.0500,9.7396,1.2833,1.7502,0.3158,-0.1250,0.0626,-63.3000,21.9000,-8.8500,3.0600,3.7800,-8.5300,0.0153,0.0185,-0.0055,-27.2500,-9.5000,20.8750,270.7500,18.3125,-156.8750,0
746.107,9.4236,2.7581,1.1420,0.7935,0.1719,0.0381,-52.6500,13.0500,28.0500,9.7396,1.2833,1.7502,0.3158,-0.1250,0.0626,-63.3000,21.9000,-8.8500,3.0800,3.7300,-8.5300,0.0153,0.0185,-0.0055,-27.2500,-9.5000,20.8750,270.7500,18.3125,-156.8750,0
746.112,9.4236,2.7581,1.1420,0.7935,0.1719,0.0381,-52.6500,13.0500,28.0500,9.7995,1.2378,1.4676,0.2886,-0.1375,0.0743,-61.8000,20.2500,-9.6000,3.0800,3.7300,-8.5300,0.0196,0.0164,-0.0087,-28.0625,-10.2500,20.5625,270.7500,18.3125,-156.8750,0
746.117,9.8402,2.8180,1.4605,0.9089,0.1391,0.0671,-52.6500,13.0500,28.0500,9.7612,1.4940,1.6185,0.2886,-0.1375,0.0743,-60.7500,20.2500,-9.6000,3.0700,3.5700,-8.5800,0.0196,0.0164,-0.0087,-28.0625,-10.2500,20.5625,270.7500,18.3750,-156.8750,0
746.126,9.6055,2.6983,1.5634,0.8695,0.1396,0.0941,-52.0500,13.6500,26.4000,9.7612,1.4940,1.6185,0.2761,-0.1676,0.0794,-60.7500,21.0000,-9.6000,3.0200,3.6900,-8.5900,0.0229,0.0185,-0.0087,-28.0625,-10.2500,20.5625,270.7500,18.3750,-156.8750,0
746.136,9.6391,2.2529,1.2617,0.9252,0.1756,0.1348,-50.8500,12.7500,25.6500,9.7205,1.4724,1.8316,0.3104,-0.1958,0.0778,-61.0500,21.0000,-9.1500,3.0600,3.6900,-8.5600,0.0251,0.0251,-0.0098,-28.0625,-10.2500,20.5625,270.7500,18.3750,-156.8750,0
746.142,9.6391,2.2529,1.2617,0.9252,0.1756,0.1348,-50.8500,12.7500,25.6500,9.7085,1.1971,1.7837,0.3411,-0.2113,0.0714,-62.4000,21.3000,-8.7000,3.0700,3.5800,-8.5500,0.0262,0.0229,-0.0087,-28.0625,-10.2500,20.5625,270.7500,18.3750,-156.9375,0
746.147,9.4834,2.0255,1.2905,0.9555,0.0091,0.1567,-50.5500,12.1500,26.1000,9.7875,1.1181,1.5107,0.3357,-0.2204,0.0799,-62.4000,21.3000,-8.7000,3.0700,3.5800,-8.5500,0.0262,0.0229,-0.0087,-28.0625,-10.2500,20.5625,270.7500,18.3750,-156.9375,0
746.156,9.5577,2.1572,1.1013,0.9846,-0.0578,0.1836,-51.7500,14.4000,28.2000,9.8067,1.2881,1.3503,0.3357,-0.2204,0.0799,-62.2500,22.2000,-8.1000,3.1200,3.5000,-8.5700,0.0251,0.0207,-0.0087,-28.0625,-10.2500,20.5625,270.7500,18.3750,-156.9375,0
746.161,9.5577,2.1572,1.1013,0.9846,-0.0578,0.1836,-51.7500,14.4000,28.2000,9.8067,1.2881,1.3503,0.2915,-0.2633,0.0898,-62.2500,22.2000,-8.1000,3.1200,3.5000,-8.5700,0.0251,0.0207,-0.0087,-28.0625,-10.2500,20.5625,270.7500,18.3750,-156.9375,0
746.166,9.6774,2.3176,0.9984,0.8871,-0.0520,0.1916,-51.0000,12.9000,27.6000,9.6965,1.5203,1.1588,0.2899,-0.2777,0.0965,-62.2500,22.2000,-8.1000,3.0600,3.5100,-8.5600,0.0175,0.0262,-0.0120,-27.2500,-9.8750,20.1875,270.7500,18.3750,-156.9375,0
746.171,9.6774,2.3176,0.9984,0.8871,-0.0520,0.1916,-51.0000,12.9000,27.6000,9.6965,1.5203,1.1588,0.2899,-0.2777,0.0965,-63.3000,21.9000,-9.9000,3.0600,3.5100,-8.5600,0.0175,0.0262,-0.0120,-27.2500,-9.8750,20.1875,270.7500,18.3750,-156.9375,0
746.176,9.3518,2.4110,0.9960,0.8236,-0.0429,0.1903,-51.0000,12.9000,27.6000,9.5984,1.6975,1.0630,0.3011,-0.2878,0.0959,-63.3000,21.9000,-9.9000,3.0400,3.5800,-8.5600,0.0131,0.0262,-0.0076,-27.2500,-9.8750,20.1875,270.7500,18.4375,-156.9375,0
746.181,9.3518,2.4110,0.9960,0.8236,-0.0429,0.1903,-51.0000,12.9000,27.6000,9.5984,1.6975,1.0630,0.3011,-0.2878,0.0959,-62.4000,22.5000,-7.5000,3.0400,3.5800,-8.5600,0.0065,0.0305,-0.0076,-27.2500,-9.8750,20.1875,270.7500,18.4375,-156.9375,0
746.187,9.5337,2.5331,0.8308,0.8609,-0.0208,0.1700,-51.0000,13.2000,26.8500,9.5529,1.6975,0.9242,0.3214,-0.2806,0.1042,-62.4000,22.5000,-7.5000,3.0900,3.5500,-8.5700,0.0065,0.0305,-0.0076,-27.2500,-9.8750,20.1875,270.7500,18.4375,-156.9375,0
746.196,9.4451,2.6432,0.8164,0.8964,-0.0221,0.1359,-50.5500,12.4500,25.3500,9.6462,1.6831,1.0822,0.3496,-0.2923,0.1039,-62.5500,20.7000,-10.3500,3.0400,3.6600,-8.5400,0.0033,0.0360,-0.0076,-27.2500,-9.8750,20.1875,270.7500,18.4375,-156.9375,0
746.205,9.6319,2.6863,0.7853,0.8559,-0.0384,0.1154,-50.8500,15.3000,27.7500,9.6630,1.5754,1.0606,0.3712,-0.2987,0.1119,-62.2500,21.9000,-9.6000,3.0600,3.6700,-8.5200,0.0087,0.0305,-0.0076,-27.2500,-9.8750,20.1875,270.7500,18.4375,-156.9375,0
746.210,9.6319,2.6863,0.7853,0.8559,-0.0384,0.1154,-50.8500,15.3000,27.7500,9.6630,1.5754,1.0606,0.3712,-0.2987,0.1119,-63.3000,23.8500,-10.6500,3.0600,3.6700,-8.5200,0.0087,0.0305,-0.0076,-27.2500,-9.8750,20.1875,270.7500,18.4375,-156.9375,0
746.215,9.4547,2.7150,0.6752,0.8668,-0.1002,0.1071,-49.5000,13.6500,25.0500,9.6295,1.5395,1.0415,0.3789,-0.3142,0.1234,-63.3000,23.8500,-10.6500,3.0900,3.6100,-8.5200,0.0120,0.0284,-0.0065,-26.5625,-9.1875,21.3750,270.7500,18.5000,-156.9375,0
746.220,9.4547,2.7150,0.6752,0.8668,-0.1002,0.1071,-49.5000,13.6500,25.0500,9.6295,1.5395,1.0415,0.3789,-0.3142,0.1234,-61.9500,22.5000,-10.5000,3.0900,3.6100,-8.5200,0.0120,0.0284,-0.0065,-26.5625,-9.1875,21.3750,270.7500,18.5000,-156.9375,0
746.225,9.3541,2.4469,0.8404,0.8812,-0.0919,0.0959,-49.5000,13.6500,25.0500,9.6822,1.5155,0.8930,0.3571,-0.3307,0.1407,-61.9500,22.5000,-10.5000,3.0900,3.5600,-8.5300,0.0185,0.0284,-0.0087,-26.5625,-9.1875,21.3750,270.6875,18.5000,-156.9375,0
746.229,9.3541,2.4469,0.8404,0.8812,-0.0919,0.0959,-49.5000,13.6500,25.0500,9.6822,1.5155,0.8930,0.3571,-0.3307,0.1407,-61.9500,22.5000,-10.5000,3.0900,3.5600,-8.5300,0.0185,0.0284,-0.0087,-26.5625,-9.1875,21.3750,270.6875,18.5000,-156.9375,0
746.237,9.4236,2.2482,0.5650,0.8844,-0.0890,0.0927,-50.5500,13.9500,25.8000,9.6319,1.5658,0.8906,0.3661,-0.3416,0.1364,-61.9500,22.5000,-10.5000,3.0600,3.5500,-8.5400,0.0175,0.0327,-0.0087,-26.5625,-9.1875,21.3750,270.6875,18.5000,-156.9375,0
746.246,9.1363,2.2984,0.6393,0.8804,-0.1220,0.0754,-50.2500,12.9000,25.3500,9.5768,1.5443,0.7183,0.3776,-0.3405,0.1378,-62.5500,21.4500,-9.6000,3.0800,3.6100,-8.5100,0.0196,0.0349,-0.0055,-26.5625,-9.1875,21.3750,270.6875,18.5000,-156.9375,0
746.256,9.5816,2.1189,0.6752,0.8663,-0.1748,0.0608,-49.2000,15.1500,26.8500,9.5457,1.4964,0.5746,0.3973,-0.3368,0.1354,-62.2500,22.2000,-10.3500,3.0800,3.5900,-8.5200,0.0229,0.0360,-0.0044,-26.5625,-9.1875,21.3750,270.6875,18.5625,-156.9375,0
746.261,9.5816,2.1189,0.6752,0.8519,-0.1833,0.0394,-49.2000,15.1500,26.8500,9.5840,1.1708,0.7757,0.3973,-0.3368,0.1354,-62.2500,25.3500,-11.4000,3.0800,3.5900,-8.5200,0.0229,0.0360,-0.0044,-26.5625,-9.1875,21.3750,270.6875,18.5625,-156.9375,0
746.266,9.5217,1.8268,0.4693,0.8519,-0.1833,0.0394,-50.1000,14.2500,26.2500,9.5840,1.1708,0.7757,0.4325,-0.3435,0.1255,-62.2500,25.3500,-11.4000,3.0000,3.7600,-8.5100,0.0305,0.0382,-0.0076,-27.6875,-10.5625,20.8750,270.6875,18.5625,-157.0000,0
746.271,9.3948,1.6137,0.1604,0.8013,-0.1948,0.0405,-50.1000,14.2500,26.2500,9.6822,0.9074,0.8571,0.4325,-0.3435,0.1255,-62.7000,22.8000,-9.3000,3.0000,3.7600,-8.5100,0.0305,0.0382,-0.0076,-27.6875,-10.5625,20.8750,270.6875,18.5625,-157.0000,0
746.276,9.3948,1.6137,0.1604,0.8013,-0.1948,0.0405,-50.1000,14.5500,25.6500,9.6822,0.9074,0.8571,0.4477,-0.3613,0.1226,-62.7000,22.8000,-9.3000,3.1100,3.3200,-8.5400,0.0458,0.0393,-0.0044,-27.6875,-10.5625,20.8750,270.6875,18.5625,-157.0000,0
746.281,9.5146,1.6161,0.2203,0.7456,-0.2910,0.0330,-50.1000,14.5500,25.6500,9.8067,1.0127,0.8332,0.4477,-0.3613,0.1226,-61.9500,23.5500,-10.5000,3.1100,3.3200,-8.5400,0.0458,0.0349,-0.0022,-27.6875,-10.5625,20.8750,270.6875,18.6250,-157.0000,0
746.287,9.5146,1.6161,0.2203,0.7456,-0.2910,0.0330,-50.1000,14.5500,25.6500,9.8067,1.0127,0.8332,0.4309,-0.3683,0.1346,-61.9500,23.5500,-10.5000,3.1300,3.3300,-8.5500,0.0458,0.0349,-0.0022,-27.6875,-10.5625,20.8750,270.6875,18.6250,-157.0625,0
746.296,9.8713,1.7334,0.6632,0.6598,-0.3006,0.0043,-48.7500,15.4500,26.1000,9.9120,1.4629,0.9936,0.3986,-0.3880,0.1463,-61.8000,22.2000,-10.3500,3.0300,3.2700,-8.7000,0.0360,0.0382,-0.0044,-27.6875,-10.5625,20.8750,270.6875,18.6250,-157.0625,0
746.302,9.7995,1.5012,1.1564,0.5364,-0.3054,-0.0386,-50.8500,13.8000,26.2500,9.9551,1.3838,1.1564,0.4098,-0.4069,0.1268,-61.8000,22.2000,-10.3500,2.9800,3.4900,-8.7300,0.0175,0.0469,-0.0011,-27.6875,-10.5625,20.8750,270.6875,18.6250,-157.0625,0
746.307,9.7995,1.5012,1.1564,0.5364,-0.3054,-0.0386,-50.8500,13.8000,26.2500,9.9551,1.3838,1.1564,0.4098,-0.4069,0.1268,-61.8000,22.2000,-10.3500,2.9800,3.4900,-8.7300,0.0175,0.0469,-0.0011,-27.6875,-10.5625,20.8750,270.6875,18.6250,-157.0625,0
746.312,9.6989,0.7997,1.2067,0.4306,-0.3190,-0.0725,-50.2500,16.2000,26.4000,9.7612,0.6129,1.4676,0.4655,-0.4295,0.0719,-64.0500,22.6500,-11.1000,3.0900,3.7200,-8.5700,-0.0087,0.0687,0.0098,-27.6875,-9.1875,20.5625,270.6250,18.6875,-157.0625,0
746.317,9.6989,0.7997,1.2067,0.4306,-0.3190,-0.0725,-50.2500,16.2000,26.4000,9.7612,0.6129,1.4676,0.4655,-0.4295,0.0719,-64.0500,22.6500,-11.1000,3.0900,3.7200,-8.5700,-0.0087,0.0687,0.0098,-27.6875,-9.1875,20.5625,270.6250,18.6875,-157.0625,0
746.322,9.6965,0.1245,0.8308,0.3659,-0.3341,-0.0767,-48.6000,14.2500,26.2500,9.7181,-0.1365,1.0511,0.3717,-0.4546,0.0538,-64.0500,22.6500,-11.1000,3.0900,3.7200,-8.5700,-0.0185,0.0840,0.0196,-27.6875,-9.1875,20.5625,270.6875,18.6875,-157.0625,0
746.327,9.6965,0.1245,0.8308,0.3659,-0.3341,-0.0767,-48.6000,14.2500,26.2500,9.7181,-0.1365,1.0511,0.3717,-0.4546,0.0538,-64.0500,22.6500,-11.1000,3.1800,3.5800,-8.4900,-0.0185,0.0840,0.0196,-27.6875,-9.1875,20.5625,270.6875,18.6875,-157.0625,0
746.332,9.7851,-0.0934,0.4429,0.2467,-0.3126,-0.0605,-48.6000,14.2500,26.2500,9.9240,-0.7254,0.9409,0.2395,-0.4951,0.0725,-63.9000,21.6000,-12.0000,3.1800,3.5800,-8.4900,-0.0164,0.0785,0.0207,-27.6875,-9.1875,20.5625,270.6875,18.7500,-157.0625,0
746.337,9.7851,-0.0934,0.4429,0.2467,-0.3126,-0.0605,-48.6000,14.2500,26.2500,9.9240,-0.7254,0.9409,0.2395,-0.4951,0.0725,-63.9000,21.6000,-12.0000,3.2300,2.9000,-8.6000,-0.0164,0.0785,0.0207,-27.6875,-9.1875,20.5625,270.6875,18.8125,-157.0625,0
746.346,9.8881,0.1652,-0.0215,0.0783,-0.2795,-0.0290,-48.0000,14.7000,26.4000,9.8593,-0.6321,0.9792,0.0869,-0.5446,0.0826,-63.3000,22.6500,-10.6500,3.1700,2.7900,-8.6500,-0.0229,0.0742,0.0218,-27.6875,-9.1875,20.5625,270.6875,18.8750,-157.0000,0
746.357,9.8186,0.8404,-0.3615,-0.0861,-0.2883,0.0173,-46.8000,13.8000,24.9000,9.8306,-0.0455,0.6560,-0.0989,-0.5780,0.0826,-63.9000,23.2500,-11.2500,3.1700,2.6200,-8.6700,-0.0502,0.0807,0.0196,-27.6875,-9.1875,20.5625,270.6875,18.8750,-157.0000,0
746.361,9.6319,1.4940,-0.3615,-0.2294,-0.2646,0.0429,-47.7000,15.9000,26.4000,9.7492,0.7422,-0.2442,-0.2579,-0.5894,0.0706,-63.1500,23.2500,-12.7500,3.1700,2.6200,-8.6700,-0.0502,0.0807,0.0196,-27.6875,-9.1875,20.5625,270.6875,18.8750,-156.9375,0
746.366,9.6319,1.4940,-0.3615,-0.2294,-0.2646,0.0429,-47.7000,15.9000,26.4000,9.7085,1.3072,-0.2969,-0.2579,-0.5894,0.0706,-63.1500,23.2500,-12.7500,3.2500,2.7000,-8.7200,-0.0894,0.0905,0.0164,-27.0000,-10.2500,21.6875,270.6875,18.8750,-156.9375,0
746.371,9.3134,2.2027,-0.2945,-0.2481,-0.3064,0.0592,-47.4000,14.4000,26.4000,9.7085,1.3072,-0.2969,-0.4194,-0.5987,0.0266,-63.1500,23.2500,-12.7500,3.2500,2.7000,-8.7200,-0.0894,0.0905,0.0164,-27.0000,-10.2500,21.6875,270.6875,18.9375,-156.8750,0
746.376,9.3134,2.2027,-0.2945,-0.2481,-0.3064,0.0592,-47.4000,14.4000,26.4000,9.7659,1.4581,-0.2179,-0.4194,-0.5987,0.0266,-63.1500,23.2500,-12.7500,3.2700,2.8700,-8.8300,-0.1265,0.1047,0.0120,-27.0000,-10.2500,21.6875,270.6875,18.9375,-156.8750,0
746.381,9.5026,2.8611,-0.4645,-0.2491,-0.3384,0.0706,-46.5000,15.3000,27.3000,9.7659,1.4581,-0.2179,-0.3898,-0.5918,-0.0051,-64.3500,24.7500,-12.7500,3.2700,2.8700,-8.8300,-0.1494,0.1178,0.0109,-27.0000,-10.2500,21.6875,270.6875,19.0000,-156.8125,0
746.387,9.2680,3.2681,-0.6728,-0.1543,-0.4069,0.0901,-46.5000,15.3000,27.3000,9.7899,1.3958,-0.1508,-0.2707,-0.5502,0.0005,-64.3500,24.7500,-12.7500,3.2400,2.9500,-8.9400,-0.1494,0.1178,0.0109,-27.0000,-10.2500,21.6875,270.6875,19.1250,-156.6875,0
746.397,9.1339,3.5793,-1.0151,-0.0264,-0.4716,0.0941,-46.5000,15.3000,27.3000,9.6510,1.2306,-0.2849,-0.2952,-0.5881,0.0224,-64.3500,24.7500,-12.7500,3.3400,3.2200,-8.5700,-0.1691,0.1702,0.0000,-27.0000,-10.2500,21.6875,270.6875,19.1250,-156.6875,0
746.406,9.1339,3.5793,-1.0151,-0.0264,-0.4716,0.0941,-45.1500,14.4000,27.9000,9.5361,1.0582,-0.3065,-0.2952,-0.5881,0.0224,-64.0500,22.6500,-12.9000,3.3700,2.8600,-8.5400,-0.2214,0.2258,-0.0415,-27.0000,-10.2500,21.6875,270.6875,19.2500,-156.6250,0
746.411,9.1937,3.7493,-1.2450,0.0501,-0.5063,0.0853,-46.0500,15.0000,28.0500,9.5361,1.0582,-0.3065,-0.2854,-0.5223,0.0634,-64.5000,23.8500,-13.2000,3.3700,2.8600,-8.5400,-0.2214,0.2258,-0.0415,-27.0000,-10.2500,21.6875,270.6875,19.2500,-156.6250,0
746.416,9.1937,3.7493,-1.2450,0.0501,-0.5063,0.0853,-46.0500,15.0000,28.0500,9.5864,1.5610,-0.9936,-0.2854,-0.5223,0.0634,-64.5000,23.8500,-13.2000,3.3100,3.0700,-8.4100,-0.3436,0.2465,-0.0764,-27.6875,-9.8750,20.8750,270.6875,19.3750,-156.5000,0
746.420,9.1578,3.7996,-1.7382,0.1383,-0.4719,0.0485,-45.7500,15.0000,27.7500,9.5864,1.5610,-0.9936,-0.4066,-0.5087,0.0845,-63.7500,21.9000,-12.4500,3.3100,3.0700,-8.4100,-0.3436,0.2465,-0.0764,-27.6875,-9.8750,20.8750,270.6875,19.3750,-156.5000,0
746.425,9.1578,3.7996,-1.7382,0.1383,-0.4719,0.0485,-45.7500,15.0000,27.7500,9.6007,1.5155,-0.8188,-0.4066,-0.5087,0.0845,-63.7500,21.9000,-12.4500,3.3900,3.0500,-8.5100,-0.4560,0.2400,-0.0894,-27.6875,-9.8750,20.8750,270.6250,19.4375,-156.1875,0
746.430,9.1626,3.9528,-2.0590,0.3134,-0.4357,0.0069,-44.8500,12.1500,28.6500,9.6007,1.5155,-0.8188,-0.3805,-0.4738,0.1037,-63.7500,21.9000,-12.4500,3.3900,3.0500,-8.5100,-0.4560,0.2400,-0.0894,-27.6875,-9.8750,20.8750,270.6250,19.5625,-155.8750,0
746.437,9.1387,4.2090,-2.4229,0.4279,-0.4493,-0.0333,-44.8500,12.1500,28.6500,9.4882,2.1644,-1.1372,-0.4194,-0.4397,0.1348,-65.4000,21.6000,-12.3000,3.4500,3.1100,-8.5400,-0.5138,0.2062,-0.0851,-27.6875,-9.8750,20.8750,270.6250,19.6250,-155.5625,0
746.447,9.1554,4.3191,-2.6504,0.4852,-0.4565,-0.0671,-44.8500,12.1500,28.6500,9.5098,2.5809,-1.1947,-0.4042,-0.4330,0.1556,-64.0500,21.9000,-11.8500,3.4300,3.4100,-8.5200,-0.5498,0.1811,-0.0873,-27.6875,-9.8750,20.8750,270.6250,19.6250,-155.5625,0
746.457,8.9040,4.5538,-2.5738,0.6022,-0.4639,-0.1228,-44.8500,12.1500,28.6500,9.5289,2.8922,-0.8308,-0.2883,-0.3738,0.2041,-63.9000,22.0500,-13.5000,3.4500,3.5500,-8.5400,-0.6010,0.1604,-0.0873,-27.6875,-9.8750,20.8750,270.6250,19.6875,-155.1875,0
746.461,8.9040,4.5538,-2.5738,0.6022,-0.4639,-0.1228,-44.5500,12.0000,28.5000,9.5289,2.8922,-0.8308,-0.2883,-0.3738,0.2041,-63.9000,22.0500,-13.5000,3.4500,3.5500,-8.5400,-0.6010,0.1604,-0.0873,-27.6875,-9.8750,20.8750,270.5000,19.7500,-154.8125,0
746.467,8.8945,4.8507,-2.4517,0.7917,-0.3728,-0.1780,-44.5500,12.0000,28.5000,9.6941,3.7517,-0.0910,-0.1956,-0.3400,0.2681,-63.9000,22.0500,-13.5000,3.7000,3.5500,-8.7500,-0.6578,0.1331,-0.0949,-28.0625,-10.5625,19.6875,270.5000,19.7500,-154.8125,0
746.471,8.8945,4.8507,-2.4517,0.7917,-0.3728,-0.1780,-45.4500,14.7000,26.8500,9.6941,3.7517,-0.0910,-0.1956,-0.3400,0.2681,-63.9000,22.0500,-12.3000,3.7000,3.5500,-8.7500,-0.6578,0.1331,-0.0949,-28.0625,-10.5625,19.6875,270.5000,19.7500,-154.4375,0
746.477,8.8155,4.8483,-2.2745,0.9286,-0.2870,-0.2356,-45.4500,14.7000,26.8500,9.5409,4.6687,-0.7829,-0.1751,-0.3136,0.3528,-63.9000,22.0500,-12.3000,3.9100,3.0800,-8.8000,-0.6327,0.0818,-0.1069,-28.0625,-10.5625,19.6875,270.5000,19.7500,-154.4375,0
746.481,8.8155,4.8483,-2.2745,0.9286,-0.2870,-0.2356,-45.7500,14.5500,28.0500,9.5409,4.6687,-0.7829,-0.1751,-0.3136,0.3528,-63.7500,21.0000,-12.9000,3.9100,3.0800,-8.8000,-0.5454,-0.0469,-0.1244,-28.0625,-10.5625,19.6875,270.5000,19.6875,-154.1250,0
746.487,8.7939,4.6064,-2.3463,0.9443,-0.2014,-0.2662,-45.7500,14.5500,28.0500,9.5505,4.6088,-0.9002,0.0035,-0.2406,0.3968,-63.7500,21.0000,-12.9000,4.1000,4.8900,-8.1800,-0.5454,-0.0469,-0.1244,-28.0625,-10.5625,19.6875,270.5000,19.5625,-153.8125,0
746.497,8.9232,4.4436,-2.1763,0.8705,-0.0767,-0.2819,-45.1500,13.9500,26.8500,9.3901,4.2617,-0.2274,0.4668,-0.1378,0.4271,-65.2500,22.2000,-13.6500,3.9400,3.7300,-9.4800,-0.4974,-0.1538,-0.1745,-28.0625,-10.5625,19.6875,270.5000,19.5625,-153.8125,0
746.507,8.9759,4.1468,-1.7334,0.7781,0.0352,-0.2920,-45.1500,13.9500,26.8500,9.4068,3.4500,-0.8404,0.6161,-0.0869,0.4170,-64.0500,20.7000,-15.4500,4.0600,4.6800,-8.3100,-0.3894,-0.3589,-0.3698,-28.0625,-10.5625,19.6875,270.3750,19.3125,-153.5625,0
746.511,8.9759,4.1468,-1.7334,0.7781,0.0352,-0.2920,-46.5000,15.3000,25.9500,9.8258,2.1620,-1.1899,0.6161,-0.0869,0.4170,-63.9000,22.8000,-14.2500,4.0600,4.6800,-8.3100,-0.3894,-0.3589,-0.3698,-28.0625,-10.5625,19.6875,270.3750,19.3125,-153.5625,0
746.516,9.3063,3.7397,-1.5586,0.7600,0.1927,-0.2649,-46.5000,15.3000,25.9500,9.8258,2.1620,-1.1899,0.9286,-0.0176,0.3909,-63.9000,22.8000,-14.2500,2.6600,6.6600,-7.9900,-0.1069,-0.3622,-0.5640,-27.6875,-11.3750,19.6875,270.0625,19.0000,-153.4375,0
746.521,9.3063,3.7397,-1.5586,0.7600,0.1927,-0.2649,-44.4000,15.4500,25.8000,10.0533,1.3886,-0.7518,0.9286,-0.0176,0.3909,-64.0500,21.9000,-14.4000,2.6600,6.6600,-7.9900,-0.1069,-0.3622,-0.5640,-27.6875,-11.3750,19.6875,270.0625,19.0000,-153.4375,0
746.527,9.5816,3.3615,-1.2234,0.8524,0.2939,-0.2188,-44.4000,15.4500,25.8000,10.0533,1.3886,-0.7518,1.0592,0.0149,0.3445,-64.0500,21.9000,-14.4000,3.5100,5.4900,-8.4800,0.1724,-0.3807,-0.6741,-27.6875,-11.3750,19.6875,269.6875,18.6250,-153.4375,0
746.531,9.5816,3.3615,-1.2234,0.8524,0.2939,-0.2188,-44.8500,13.9500,26.4000,9.9024,0.5291,-0.6943,1.0946,0.0240,0.3091,-64.0500,21.9000,-14.4000,3.5100,5.4900,-8.4800,0.3120,-0.0927,-0.7592,-27.6875,-11.3750,19.6875,269.2500,18.3750,-153.5000,0
746.537,9.7300,3.2274,-1.0391,0.9803,0.4040,-0.1828,-45.3000,16.5000,24.4500,9.9024,0.5291,-0.6943,1.0946,0.0240,0.3091,-64.0500,21.9000,-14.4000,5.1200,5.6800,-10.2400,0.3120,-0.0927,-0.7592,-27.6875,-11.3750,19.6875,268.8750,18.1250,-153.6875,0
746.547,9.7516,3.1508,-1.1947,1.1823,0.4394,-0.1367,-45.3000,16.5000,24.4500,9.3111,0.8739,2.6408,1.6057,0.2390,0.3248,-64.5000,23.4000,-14.7000,4.3700,3.8400,-8.0800,0.5367,-0.2007,-0.6447,-27.6875,-11.3750,19.6875,268.5625,17.6875,-154.0625,0
746.557,10.2927,3.3519,-0.9744,1.3909,0.4274,-0.0661,-45.3000,16.5000,24.4500,8.9902,6.4476,-1.5610,0.9899,0.3397,0.3035,-64.5000,23.4000,-14.7000,7.4900,12.7300,-6.1800,0.7276,-0.5367,-0.6010,-27.6875,-11.3750,19.6875,268.5625,17.6875,-154.0625,0
746.562,10.2663,3.7828,-0.7685,1.5620,0.3499,-0.0195,-45.3000,16.5000,24.4500,10.0844,7.5250,-0.7805,0.4687,0.2230,0.2982,-66.1500,22.5000,-12.3000,7.4900,12.7300,-6.1800,0.7276,-0.5367,-0.6010,-27.6875,-11.3750,19.6875,268.5625,17.6875,-154.0625,0
746.567,10.2663,3.7828,-0.7685,1.5620,0.3499,-0.0195,-45.3000,16.5000,24.4500,10.0844,7.5250,-0.7805,0.4687,0.2230,0.2982,-66.1500,22.5000,-12.3000,2.1500,15.6700,-1.2500,0.7396,0.2476,-1.2643,-27.2500,-11.6875,20.0625,267.7500,17.5000,-154.2500,0
746.572,9.7516,4.4987,-1.1301,1.6329,0.1434,-0.0871,-45.0000,15.0000,25.2000,9.7779,10.1897,-0.1365,2.0299,0.3776,0.3864,-64.5000,22.5000,-12.3000,2.1500,15.6700,-1.2500,0.7396,0.2476,-1.2643,-27.2500,-11.6875,20.0625,267.7500,17.5000,-154.2500,0
746.577,9.7516,4.4987,-1.1301,1.6329,0.1434,-0.0871,-44.5500,16.5000,24.1500,9.7779,10.1897,-0.1365,2.0299,0.3776,0.3864,-64.5000,21.9000,-13.6500,-1.7000,10.8800,4.1500,0.8476,1.0417,-3.7426,-27.2500,-11.6875,20.0625,265.5000,17.1250,-154.0625,0
746.582,8.6814,5.2289,-1.5969,1.7208,0.0059,-0.2292,-44.5500,16.5000,24.1500,8.8681,12.5648,2.1739,3.1392,0.5649,0.3136,-65.2500,22.2000,-12.9000,-1.7000,10.8800,4.1500,1.1934,0.1418,-4.1812,-27.2500,-11.6875,20.0625,263.0625,16.1875,-154.0625,0
746.588,8.6814,5.2289,-1.5969,1.7208,0.0059,-0.2292,-44.1000,16.9500,24.0000,7.9272,10.8769,3.0167,3.1392,0.5649,0.3136,-65.2500,22.2000,-12.9000,3.3500,9.1100,-0.6400,1.1934,0.1418,-4.1812,-27.2500,-11.6875,20.0625,260.0000,16.5000,-154.0000,0
746.597,7.9703,6.1004,-1.9441,1.8485,0.0538,-0.4101,-45.4500,17.4000,24.3000,7.9272,10.8769,3.0167,4.8917,0.7365,0.2982,-64.6500,22.5000,-14.2500,9.2900,7.1700,-5.9100,1.3886,2.7740,-4.5957,-27.2500,-11.6875,20.0625,260.0000,16.5000,-154.0000,0
746.607,7.6519,6.7588,-1.8411,1.9641,0.0493,-0.5993,-45.4500,17.4000,24.3000,8.4587,5.3917,3.6990,6.4926,0.9899,0.3147,-64.6500,22.5000,-14.2500,7.8200,3.0900,-5.6300,1.5555,3.2289,-5.3222,-27.2500,-11.6875,20.0625,256.5625,16.8125,-153.8125,0
746.612,7.4579,7.4029,-1.2857,2.1162,0.1148,-0.7389,-45.4500,17.4000,24.3000,8.4587,5.3917,3.6990,7.4119,1.2001,0.3043,-64.6500,22.5000,-14.2500,7.8200,3.0900,-5.6300,1.5555,3.2289,-5.3222,-27.2500,-11.6875,20.0625,252.8125,16.8750,-153.9375,0
746.617,7.4579,7.4029,-1.2857,2.1162,0.1148,-0.7389,-44.1000,18.4500,23.5500,9.2632,2.6408,4.0486,7.4119,1.2001,0.3043,-65.2500,23.8500,-16.2000,9.4600,3.7700,-6.0400,2.1948,2.8994,-5.6625,-26.1875,-13.5000,20.5625,252.8125,16.8750,-153.9375,0
746.621,7.4364,7.7620,-0.1915,2.2881,0.3102,-0.8220,-44.1000,18.4500,23.5500,9.2632,2.6408,4.0486,7.7900,1.3123,0.2817,-65.2500,23.8500,-16.2000,9.4600,3.7700,-6.0400,2.1948,2.8994,-5.6625,-26.1875,-13.5000,20.5625,252.8125,16.8750,-153.9375,0
746.626,7.4364,7.7620,-0.1915,2.2881,0.3102,-0.8220,-44.5500,17.5500,22.0500,9.7492,0.0551,4.2641,7.7900,1.3123,0.2817,-65.2500,23.8500,-16.2000,7.4300,4.9100,-5.8400,2.1108,2.7478,-5.7181,-26.1875,-13.5000,20.5625,249.1250,16.8125,-154.0625,0
746.631,7.9344,7.8961,0.9409,2.5010,0.5428,-0.8711,-44.5500,17.5500,22.0500,9.7492,0.0551,4.2641,7.6893,1.3334,0.2284,-65.2500,23.8500,-16.2000,7.4300,4.9100,-5.8400,2.0780,2.6551,-5.6200,-26.1875,-13.5000,20.5625,245.5000,16.8125,-154.1875,0
746.638,7.9344,7.8961,0.9409,2.5010,0.5428,-0.8711,-43.6500,18.4500,24.7500,9.6367,-2.1117,3.9097,7.0546,1.2937,0.1561,-65.5500,26.1000,-17.7000,7.7100,1.6000,-5.7400,2.0780,2.6551,-5.6200,-26.1875,-13.5000,20.5625,242.0000,16.9375,-154.3750,0
746.647,7.9871,7.5034,2.1955,2.6883,0.9017,-0.8796,-44.4000,18.4500,21.4500,9.6582,-3.3208,3.2537,6.0189,1.2100,0.1069,-66.7500,27.0000,-18.4500,6.7600,1.9100,-6.0200,2.1762,2.8187,-5.3385,-26.1875,-13.5000,20.5625,238.8750,17.1250,-154.3750,0
746.657,8.4491,6.6702,2.8228,2.8474,1.1415,-0.8703,-43.9500,19.8000,20.5500,9.8067,-3.3088,2.4780,4.8576,1.0749,0.0767,-65.1000,26.7000,-18.3000,5.8400,2.0100,-5.8900,1.7017,2.7380,-4.8193,-26.1875,-13.5000,20.5625,238.8750,17.1250,-154.3750,0
746.662,8.8178,5.2002,3.0813,2.9870,1.2145,-0.8127,-43.9500,19.8000,20.5500,9.8067,-3.3088,2.4780,4.8576,1.0749,0.0767,-65.1000,26.7000,-18.3000,5.8400,2.0100,-5.8900,1.7017,2.7380,-4.8193,-26.1875,-13.5000,20.5625,235.9375,17.5000,-154.2500,0
746.667,8.7053,4.0438,2.5570,3.2956,1.2209,-0.7083,-43.9500,19.8000,20.5500,9.7133,-2.3774,2.0830,3.7896,0.9220,0.0765,-64.8000,28.0500,-19.5000,6.1400,0.8800,-7.1700,1.4595,2.8580,-4.4593,-24.3750,-18.3750,17.3750,235.9375,17.5000,-154.2500,0
746.672,8.7053,4.0438,2.5570,3.2956,1.2209,-0.7083,-43.9500,19.8000,20.5500,9.7133,-2.3774,2.0830,3.7896,0.9220,0.0765,-64.8000,28.0500,-19.5000,6.1400,0.8800,-7.1700,1.4595,2.8580,-4.4593,-24.3750,-18.3750,17.3750,232.9375,17.8750,-154.1250,0
746.677,8.7053,3.3184,1.8866,3.5005,1.1876,-0.5566,-43.2000,21.3000,19.9500,9.5026,-1.4557,1.5658,2.9268,0.8021,0.0855,-65.4000,27.4500,-19.8000,5.4800,0.5900,-7.4100,1.4595,2.8580,-4.4593,-24.3750,-18.3750,17.3750,232.9375,17.8750,-154.1250,0
746.685,8.7053,3.3184,1.8866,3.5005,1.1876,-0.5566,-43.6500,20.7000,18.3000,9.3925,-0.6776,1.4820,2.3142,0.6917,0.0850,-64.8000,28.0500,-19.2000,5.1600,0.3800,-7.9300,0.9152,2.5536,-3.5605,-24.3750,-18.3750,17.3750,230.5625,18.2500,-153.8750,0
746.690,9.0621,3.3543,1.0942,3.6727,1.1279,-0.4381,-43.6500,20.7000,18.3000,9.3925,-0.6776,1.4820,2.3142,0.6917,0.0850,-64.8000,28.0500,-19.2000,5.1600,0.3800,-7.9300,0.9152,2.5536,-3.5605,-24.3750,-18.3750,17.3750,228.5000,18.6875,-153.5000,0
746.697,8.7388,3.2226,0.1700,3.6452,1.1381,-0.3757,-45.7500,22.0500,15.9000,9.3709,-0.1939,1.4413,1.8596,0.6424,0.0637,-64.8000,28.0500,-19.2000,5.1700,1.0100,-9.1100,0.6000,2.3802,-3.1012,-24.3750,-18.3750,17.3750,226.6875,19.0625,-153.0625,0
746.707,9.5146,2.5905,-0.2825,3.4382,0.5031,-0.3885,-43.6500,22.2000,16.2000,9.2823,0.0958,1.4964,1.5186,0.6174,0.0216,-65.1000,28.6500,-22.3500,5.2800,1.4900,-9.5300,0.3229,2.1380,-2.6660,-24.3750,-18.3750,17.3750,226.6875,19.0625,-153.0625,0
746.712,9.5146,2.5905,-0.2825,3.4382,0.5031,-0.3885,-43.6500,22.2000,16.2000,9.2823,0.0958,1.4964,1.5186,0.6174,0.0216,-65.1000,28.6500,-22.3500,5.2800,1.4900,-9.5300,0.3229,2.1380,-2.6660,-24.3750,-18.3750,17.3750,226.6875,19.0625,-153.0625,0
746.717,8.7029,2.2745,-0.7230,3.2722,0.7178,-0.4229,-43.6500,22.2000,16.2000,9.3661,0.4693,1.4748,1.2249,0.5561,-0.0184,-65.5500,28.9500,-21.7500,5.0600,2.1300,-9.6400,0.1407,1.7966,-2.2624,-20.0000,-24.5625,15.3750,224.4375,19.3750,-152.5625,0
746.722,8.7029,2.2745,-0.7230,3.2722,0.7178,-0.4229,-43.6500,22.2000,16.2000,9.3398,0.9122,1.3240,1.2249,0.5561,-0.0184,-65.5500,28.9500,-21.7500,5.0600,2.1300,-9.6400,0.1407,1.7966,-2.2624,-20.0000,-24.5625,15.3750,224.4375,19.3750,-152.5625,0
746.727,9.3254,1.5706,-0.8811,3.1944,0.8993,-0.4759,-43.6500,21.4500,14.7000,9.3398,0.9122,1.3240,0.9854,0.4930,-0.0506,-65.4000,29.5500,-21.6000,4.5000,2.6700,-9.3200,0.0611,1.4050,-1.8893,-20.0000,-24.5625,15.3750,223.1875,19.5625,-152.1250,0
746.732,9.3254,1.5706,-0.8811,3.1944,0.8993,-0.4759,-43.6500,21.4500,14.7000,9.5241,1.3719,1.2905,0.9854,0.4930,-0.0506,-65.4000,29.5500,-21.6000,4.5000,2.6700,-9.3200,0.0436,1.0952,-1.5533,-20.0000,-24.5625,15.3750,222.1875,19.7500,-151.8125,0
746.738,9.8593,0.8428,-0.9146,3.1339,0.8124,-0.5140,-45.3000,19.5000,12.7500,9.5241,1.3719,1.2905,0.8551,0.4191,-0.0685,-65.2500,28.0500,-20.7000,3.0700,3.6300,-8.3300,0.0436,1.0952,-1.5533,-20.0000,-24.5625,15.3750,221.3125,19.8125,-151.5000,0
746.747,9.5816,0.2418,-0.5315,3.0569,0.6928,-0.5614,-46.0500,22.0500,12.7500,9.4882,1.8364,1.0894,0.8394,0.3480,-0.1029,-65.1000,29.1000,-20.8500,2.6000,4.2400,-7.9600,0.0578,0.9010,-1.2992,-20.0000,-24.5625,15.3750,220.5625,19.8750,-151.2500,0
746.757,9.4068,-0.3448,-0.4238,3.0744,0.6797,-0.5963,-44.1000,20.7000,10.0500,9.5050,1.8962,0.8978,0.9699,0.2785,-0.1447,-65.5500,29.2500,-19.5000,2.3200,4.8200,-7.6300,0.0742,0.7821,-1.1345,-20.0000,-24.5625,15.3750,220.5625,19.8750,-151.2500,0
746.762,9.4068,-0.3448,-0.4238,3.0744,0.6797,-0.5963,-44.1000,20.7000,10.0500,9.4691,2.0016,0.8859,1.1892,0.2246,-0.1924,-65.5500,29.2500,-19.5000,2.3200,4.8200,-7.6300,0.0742,0.7821,-1.1345,-20.0000,-24.5625,15.3750,219.1250,19.9375,-151.0625,0
746.767,9.2703,-0.1173,-0.2586,3.0121,0.7168,-0.6041,-44.5500,19.8000,9.9000,9.4691,2.0016,0.8859,1.1892,0.2246,-0.1924,-65.5500,29.2500,-19.5000,1.8200,5.8000,-6.9600,0.0949,0.7123,-1.0581,-17.8750,-27.5000,15.2500,219.1250,19.9375,-151.0625,0
746.772,9.2703,-0.1173,-0.2586,3.0121,0.7168,-0.6041,-44.5500,19.8000,9.9000,9.4427,1.8699,0.6967,1.4245,0.1695,-0.2606,-65.5500,29.2500,-19.5000,1.8200,5.8000,-6.9600,0.0949,0.7123,-1.0581,-17.8750,-27.5000,15.2500,218.4375,20.0000,-150.8750,0
746.777,9.4020,-0.4070,-0.2394,2.6564,0.7096,-0.6129,-44.5500,19.8000,9.9000,9.4427,1.8699,0.6967,1.4245,0.1695,-0.2606,-65.5500,29.2500,-21.0000,1.4500,6.1800,-6.5900,0.1058,0.6730,-1.0734,-17.8750,-27.5000,15.2500,218.4375,20.0000,-150.8750,0
746.782,9.4020,-0.4070,-0.2394,2.6564,0.7096,-0.6129,-44.5500,19.8000,9.9000,9.4571,1.6735,0.7087,1.6403,0.1135,-0.3328,-65.5500,29.2500,-21.0000,1.4500,6.1800,-6.5900,0.1080,0.6992,-1.1705,-17.8750,-27.5000,15.2500,217.6875,20.0000,-150.6875,0
746.788,9.3613,-0.1700,-0.2921,2.3403,0.7653,-0.6233,-45.0000,20.2500,9.9000,9.4571,1.6735,0.7087,1.6403,0.1135,-0.3328,-64.5000,28.5000,-20.7000,1.1800,6.4900,-6.2600,0.1080,0.6992,-1.1705,-17.8750,-27.5000,15.2500,216.8125,20.0625,-150.3750,0
746.797,9.4140,0.0287,-0.2610,2.0312,0.7975,-0.6318,-44.4000,19.9500,9.3000,9.5170,1.3934,0.6153,1.8034,0.0416,-0.4088,-64.5000,30.4500,-22.2000,1.0000,6.7400,-6.0900,0.0884,0.7767,-1.3264,-17.8750,-27.5000,15.2500,216.8125,20.0625,-150.3750,0
746.807,9.5768,0.0934,-0.4764,1.6912,0.8092,-0.6331,-44.5500,21.7500,7.8000,9.6941,1.2306,0.6201,1.9382,-0.0365,-0.4772,-64.5000,28.9500,-22.2000,1.3100,7.1200,-6.4500,0.0447,0.8727,-1.5293,-17.8750,-27.5000,15.2500,215.8125,20.0625,-150.0625,0
746.812,9.5768,0.0934,-0.4764,1.6912,0.8092,-0.6331,-44.5500,21.7500,7.8000,9.7540,1.1732,0.6656,2.0899,-0.1055,-0.5369,-64.5000,28.9500,-22.2000,1.3100,7.1200,-6.4500,0.0447,0.8727,-1.5293,-17.8750,-27.5000,15.2500,215.8125,20.0625,-150.0625,0
746.817,9.2656,0.3376,-0.5435,1.3784,0.7922,-0.6265,-44.2500,20.5500,9.6000,9.7540,1.1732,0.6656,2.0899,-0.1055,-0.5369,-64.8000,30.4500,-22.9500,1.5400,7.1800,-6.7900,-0.0109,0.9403,-1.7661,-15.3750,-29.0625,12.3750,214.7500,20.0000,-149.6875,0
746.822,9.2656,0.3376,-0.5435,1.3784,0.7922,-0.6265,-44.2500,20.5500,9.6000,9.9072,1.0702,0.5842,2.1919,-0.1911,-0.5881,-64.8000,30.4500,-22.9500,1.5400,7.1800,-6.7900,-0.0109,0.9403,-1.7661,-15.3750,-29.0625,12.3750,214.7500,20.0000,-149.6875,0
746.827,9.4044,0.6273,-0.7183,1.1162,0.7693,-0.5982,-44.2500,20.5500,9.6000,9.9072,1.0702,0.5842,2.1919,-0.1911,-0.5881,-64.0500,30.4500,-22.9500,1.8700,7.0900,-7.1200,-0.0742,0.9654,-2.0268,-15.3750,-29.0625,12.3750,213.4375,19.8750,-149.1875,0
746.832,9.3996,1.0104,-0.8164,0.9627,0.7645,-0.5545,-44.2500,20.5500,9.6000,10.0341,1.0223,0.5171,2.2775,-0.2651,-0.6360,-64.0500,30.4500,-22.9500,1.8700,7.0900,-7.1200,-0.1080,0.9621,-2.2591,-15.3750,-29.0625,12.3750,212.0625,19.6875,-148.6250,0
746.838,9.3996,1.0104,-0.8164,0.9627,0.7645,-0.5545,-44.2500,22.5000,8.1000,10.0963,0.8619,0.5339,2.2775,-0.2651,-0.6360,-64.0500,30.4500,-22.9500,2.0500,6.5800,-7.4200,-0.1080,0.9621,-2.2591,-15.3750,-29.0625,12.3750,210.5625,19.4375,-148.0000,0
746.847,9.4284,1.3958,-1.0151,0.8236,0.7602,-0.5108,-44.1000,21.4500,8.2500,10.0700,0.9385,1.1732,2.3537,-0.3267,-0.6584,-64.3500,31.0500,-24.6000,2.1000,6.1000,-7.5000,-0.1353,0.9785,-2.4533,-15.3750,-29.0625,12.3750,210.5625,19.4375,-148.0000,0
746.857,9.3637,1.9201,-0.9218,0.7610,0.7706,-0.4767,-42.3000,20.4000,9.0000,9.8258,0.9625,0.7446,2.4960,-0.3781,-0.6835,-64.3500,31.0500,-24.6000,2.3300,5.8000,-7.6300,-0.1680,1.0079,-2.6169,-15.3750,-29.0625,12.3750,209.0000,19.1250,-147.3750,0
746.862,9.2727,2.4301,-1.1492,0.7277,0.7586,-0.4668,-42.7500,20.5500,9.6000,9.8258,0.9625,0.7446,2.4144,-0.4714,-0.6638,-64.3500,31.0500,-24.6000,2.3300,5.8000,-7.6300,-0.1680,1.0079,-2.6169,-15.3750,-29.0625,12.3750,209.0000,19.1250,-147.3750,0
746.867,9.2727,2.4301,-1.1492,0.7277,0.7586,-0.4668,-42.7500,20.5500,9.6000,9.9072,0.2993,0.4405,2.4285,-0.5036,-0.6121,-64.6500,32.2500,-26.1000,1.9500,3.9800,-8.1500,-0.1887,1.0112,-2.7413,-14.0625,-29.8750,11.3750,207.3125,18.8125,-146.7500,0
746.872,9.0597,2.9473,-1.3336,0.7549,0.6789,-0.4650,-44.8500,22.2000,8.7000,9.9072,0.2993,0.4405,2.4285,-0.5036,-0.6121,-64.6500,32.2500,-26.1000,1.9500,3.9800,-8.1500,-0.1887,1.0112,-2.7413,-14.0625,-29.8750,11.3750,207.3125,18.8125,-146.7500,0
746.877,9.0597,2.9473,-1.3336,0.7549,0.6789,-0.4650,-44.8500,22.2000,8.7000,10.1155,-0.1987,0.4022,2.4594,-0.5561,-0.5662,-63.3000,30.4500,-27.0000,1.8800,3.5700,-8.2700,-0.2105,1.0025,-2.8438,-14.0625,-29.8750,11.3750,205.6250,18.3750,-146.0625,0
746.886,8.9352,3.3471,-1.4078,0.7847,0.6686,-0.4762,-44.8500,22.2000,8.7000,10.0533,-0.5435,0.7111,2.4594,-0.5561,-0.5662,-64.0500,31.9500,-28.5000,3.0900,3.7700,-9.0000,-0.2116,1.1170,-2.8743,-14.0625,-29.8750,11.3750,203.8750,18.0000,-145.4375,0
746.890,9.1315,3.7852,-1.0415,0.8399,0.6555,-0.4732,-44.8500,22.2000,8.7000,10.0533,-0.5435,0.7111,2.3899,-0.5942,-0.5100,-64.0500,31.9500,-28.5000,3.0900,3.7700,-9.0000,-0.2116,1.1170,-2.8743,-14.0625,-29.8750,11.3750,202.1250,17.5625,-144.8125,0
746.898,9.1315,3.7852,-1.0415,0.8399,0.6555,-0.4732,-43.2000,22.0500,9.6000,9.9790,-0.8068,0.4094,2.2012,-0.6422,-0.4567,-62.7000,32.5500,-28.9500,3.5200,3.1600,-9.0800,-0.1342,1.0527,-2.8023,-14.0625,-29.8750,11.3750,200.5000,17.1250,-144.3125,0
746.908,8.9902,3.9097,-0.8068,0.9435,0.6038,-0.4583,-42.7500,21.3000,7.3500,10.0724,-1.1133,0.2442,1.9974,-0.6571,-0.4117,-62.7000,32.5500,-28.9500,3.4100,2.0900,-9.0600,-0.0796,0.9141,-2.6747,-14.0625,-29.8750,11.3750,200.5000,17.1250,-144.3125,0
746.913,8.8945,3.8954,-0.8380,1.0475,0.6702,-0.4093,-42.3000,21.9000,7.2000,10.0724,-1.1133,0.2442,1.9974,-0.6571,-0.4117,-62.7000,32.5500,-28.9500,3.4100,2.0900,-9.0600,-0.0796,0.9141,-2.6747,-9.7500,-32.5000,11.0625,199.0000,16.6875,-143.8750,0
746.918,8.8945,3.8954,-0.8380,1.0475,0.6702,-0.4093,-42.3000,21.9000,7.2000,10.1251,-1.1133,0.2083,1.7986,-0.6816,-0.3968,-61.9500,32.2500,-30.1500,3.5100,2.4300,-8.9900,-0.0545,0.8356,-2.4969,-9.7500,-32.5000,11.0625,199.0000,16.6875,-143.8750,0
746.923,9.1602,3.6392,-0.9337,1.2137,0.7418,-0.3485,-42.9000,21.9000,7.6500,10.1251,-1.1133,0.2083,1.7986,-0.6816,-0.3968,-61.9500,32.2500,-30.1500,3.5100,2.4300,-8.9900,-0.0545,0.8356,-2.4969,-9.7500,-32.5000,11.0625,197.5625,16.3125,-143.5000,0
746.928,9.1602,3.6392,-0.9337,1.2137,0.7418,-0.3485,-42.9000,21.9000,7.6500,9.9695,-1.0151,0.0910,1.6619,-0.6971,-0.4018,-61.9500,32.2500,-30.1500,4.1100,2.8900,-8.9800,0.0371,0.8236,-2.2897,-9.7500,-32.5000,11.0625,197.5625,16.3125,-143.5000,0
746.932,9.4882,3.3686,-1.3312,1.3688,0.8052,-0.2907,-42.9000,21.9000,7.6500,9.9695,-1.0151,0.0910,1.6619,-0.6971,-0.4018,-61.9500,32.2500,-30.1500,4.1100,2.8900,-8.9800,0.1745,0.7669,-2.0606,-9.7500,-32.5000,11.0625,196.2500,16.0000,-143.2500,0
746.938,9.3613,2.8539,-1.6592,1.5551,0.8508,-0.2257,-42.9000,21.9000,7.6500,9.7516,-0.9218,0.0694,1.5513,-0.6827,-0.4042,-63.3000,31.6500,-31.8000,4.4300,2.7400,-8.3400,0.1745,0.7669,-2.0606,-9.7500,-32.5000,11.0625,195.0625,15.6875,-143.0625,0
746.948,9.3613,2.8539,-1.6592,1.5551,0.8508,-0.2257,-44.1000,20.4000,7.2000,9.5912,-0.7925,-0.0048,1.4562,-0.6371,-0.4242,-63.3000,31.6500,-31.0500,4.4600,2.5700,-7.9300,0.2498,0.7210,-1.8511,-9.7500,-32.5000,11.0625,195.0625,15.6875,-143.0625,0
746.958,9.1554,2.1452,-2.1021,1.6694,0.7890,-0.0983,-43.3500,23.4000,6.1500,9.4667,-0.5124,-0.0311,1.3811,-0.5955,-0.4311,-63.3000,31.6500,-32.8500,4.5400,2.4600,-7.5900,0.2367,0.6905,-1.6602,-9.7500,-32.5000,11.0625,194.0000,15.4375,-142.9375,0
746.962,9.1554,2.1452,-2.1021,1.6694,0.7890,-0.0983,-44.2500,21.0000,6.3000,9.4116,-0.3807,0.0694,1.3811,-0.5955,-0.4311,-63.3000,31.6500,-32.8500,4.5400,2.4600,-7.5900,0.2367,0.6905,-1.6602,-9.7500,-32.5000,11.0625,193.0625,15.2500,-142.8125,0
746.968,9.0980,1.8842,-2.1907,1.6371,0.7746,-0.0266,-44.2500,21.0000,6.3000,9.4116,-0.3807,0.0694,1.3779,-0.5518,-0.4346,-62.4000,32.2500,-32.4000,4.7100,2.7000,-7.2100,0.2094,0.7003,-1.4912,-5.8750,-33.6875,8.5625,193.0625,15.2500,-142.8125,0
746.972,9.0980,1.8842,-2.1907,1.6371,0.7746,-0.0266,-42.9000,20.4000,6.1500,9.3853,-0.2227,0.1700,1.3779,-0.5518,-0.4346,-62.4000,32.2500,-32.4000,4.7100,2.7000,-7.2100,0.2094,0.7003,-1.4912,-5.8750,-33.6875,8.5625,192.1250,15.1250,-142.6875,0
746.978,8.9256,1.5586,-2.3080,1.6326,0.8287,0.0554,-42.9000,20.4000,6.1500,9.3853,-0.2227,0.1700,1.4043,-0.5159,-0.4309,-62.4000,32.5500,-33.7500,4.8800,2.6100,-7.2800,0.1909,0.7701,-1.3428,-5.8750,-33.6875,8.5625,192.1250,15.1250,-142.6875,0
746.986,8.9256,1.5586,-2.3080,1.6326,0.8287,0.0554,-42.6000,21.4500,5.8500,9.2608,-0.1053,0.1532,1.4245,-0.4572,-0.4135,-60.3000,31.9500,-33.3000,5.0000,2.5500,-7.4600,0.1505,0.8290,-1.2468,-5.8750,-33.6875,8.5625,191.2500,15.0625,-142.5625,0
746.991,8.9543,1.4174,-2.2769,1.5737,0.7973,0.1583,-42.6000,21.4500,5.8500,9.2608,-0.1053,0.1532,1.4245,-0.4572,-0.4135,-60.3000,31.9500,-33.3000,5.0000,2.5500,-7.4600,0.1505,0.8290,-1.2468,-5.8750,-33.6875,8.5625,190.4375,15.0625,-142.3750,0
746.998,8.6838,1.3575,-2.1428,1.4144,0.7288,0.2276,-42.6000,21.4500,5.8500,9.2081,-0.2729,0.2729,1.4344,-0.4104,-0.3736,-60.3000,31.9500,-33.3000,5.1500,2.5600,-7.6300,0.0818,0.8738,-1.2065,-5.8750,-33.6875,8.5625,189.6250,15.0625,-142.1875,0
747.008,8.6311,1.1109,-1.9944,1.2132,0.6877,0.2867,-43.2000,21.7500,5.7000,9.0525,-0.4477,0.0766,1.4394,-0.3491,-0.3499,-61.8000,31.6500,-33.6000,5.2200,2.6400,-7.6700,0.0295,0.8847,-1.2228,-5.8750,-33.6875,8.5625,189.6250,15.0625,-142.1875,0
747.013,8.6311,1.1109,-1.9944,1.2132,0.6877,0.2867,-42.0000,20.5500,4.2000,9.0716,-0.4788,0.2011,1.4461,-0.2963,-0.3104,-61.8000,31.6500,-33.6000,5.2200,2.6400,-7.6700,0.0295,0.8847,-1.2228,-5.8750,-33.6875,8.5625,189.6250,15.0625,-142.1875,0
747.018,8.6574,1.0894,-1.7478,1.0195,0.6718,0.3371,-42.0000,20.5500,4.2000,9.0716,-0.4788,0.2011,1.4461,-0.2963,-0.3104,-61.2000,31.5000,-36.0000,5.1700,2.5600,-7.6600,0.0142,0.8999,-1.2555,-3.3750,-33.3750,10.5000,188.7500,15.0000,-141.9375,0
747.023,8.6574,1.0894,-1.7478,1.0195,0.6718,0.3371,-42.6000,19.6500,4.3500,9.0357,-0.6345,0.4334,1.4453,-0.2545,-0.2726,-61.2000,31.5000,-36.0000,5.1700,2.5600,-7.6600,0.0142,0.8999,-1.2555,-3.3750,-33.3750,10.5000,188.7500,15.0000,-141.9375,0
747.028,8.7245,0.9960,-1.5682,0.8372,0.6603,0.3754,-42.6000,19.6500,4.3500,9.0357,-0.6345,0.4334,1.4453,-0.2545,-0.2726,-60.1500,31.5000,-36.7500,5.1500,2.4800,-7.6100,0.0295,0.9239,-1.2905,-3.3750,-33.3750,10.5000,187.8125,14.9375,-141.7500,0
747.033,8.7245,0.9960,-1.5682,0.8372,0.6603,0.3754,-42.7500,20.2500,4.9500,8.9830,-0.7614,0.2370,1.4027,-0.2070,-0.2313,-60.1500,31.5000,-36.7500,5.1500,2.4800,-7.6100,0.0796,0.9228,-1.3025,-3.3750,-33.3750,10.5000,186.9375,14.9375,-141.5625,0
747.039,8.7269,1.0295,-1.3695,0.6971,0.6851,0.4026,-42.7500,20.2500,4.9500,8.9830,-0.7614,0.2370,1.4027,-0.2070,-0.2313,-60.1500,31.5000,-36.4500,5.2400,2.0100,-7.5300,0.0796,0.9228,-1.3025,-3.3750,-33.3750,10.5000,186.0625,14.8750,-141.3750,0
747.048,8.9352,0.9744,-1.3479,0.6424,0.7791,0.4378,-42.7500,20.2500,4.9500,8.9328,-0.9697,0.1700,1.3675,-0.1607,-0.1945,-61.9500,32.2500,-34.5000,5.2000,1.5600,-7.4200,0.1069,0.9196,-1.2981,-3.3750,-33.3750,10.5000,186.0625,14.8750,-141.3750,0
747.058,9.1147,0.9744,-1.2929,0.6046,0.8604,0.4596,-44.5500,20.5500,3.4500,9.0285,-1.1803,0.4310,1.3278,-0.1343,-0.1617,-60.7500,31.9500,-36.6000,5.1900,1.4200,-7.3300,0.1145,0.9468,-1.2599,-3.3750,-33.3750,10.5000,185.1250,14.8750,-141.1875,0
747.063,9.1147,0.9744,-1.2929,0.6046,0.8604,0.4596,-43.3500,19.9500,3.3000,8.9567,-1.3982,0.5866,1.2678,-0.0965,-0.1450,-60.7500,31.9500,-36.6000,5.1900,1.4200,-7.3300,0.1145,0.9468,-1.2599,-3.3750,-33.3750,10.5000,184.3125,14.8750,-141.0625,0
747.068,9.3613,0.6991,-1.2665,0.5929,0.9257,0.4642,-43.3500,19.9500,3.3000,8.9567,-1.3982,0.5866,1.2678,-0.0965,-0.1450,-60.7500,31.9500,-36.6000,5.6600,1.1000,-7.6700,0.1331,0.9741,-1.1846,-1.5625,-33.8750,8.8750,184.3125,14.8750,-141.0625,0
747.072,9.3613,0.6991,-1.2665,0.5929,0.9257,0.4642,-43.5000,18.7500,4.9500,9.0070,-1.6592,0.6105,1.1466,-0.0522,-0.1167,-60.7500,31.9500,-36.6000,5.6600,1.1000,-7.6700,0.1331,0.9741,-1.1846,-1.5625,-33.8750,8.8750,184.3125,14.8750,-141.0625,0
747.078,9.2033,0.5602,-1.3144,0.5750,0.9068,0.4716,-43.5000,18.7500,4.9500,9.3326,-1.6735,0.6105,1.1466,-0.0522,-0.1167,-60.1500,31.5000,-36.7500,5.6500,0.6700,-7.6500,0.1593,0.9501,-1.0679,-1.5625,-33.8750,8.8750,183.5000,14.8750,-140.9375,0
747.084,9.1937,0.4214,-1.1468,0.4525,0.7962,0.4666,-43.9500,19.5000,3.1500,9.3326,-1.6735,0.6105,0.9755,0.0069,-0.1039,-60.1500,31.5000,-36.7500,5.7300,0.5600,-7.7700,0.1309,0.9348,-0.8683,-1.5625,-33.8750,8.8750,182.8125,15.0000,-140.8125,0
747.089,9.1937,0.4214,-1.1468,0.4525,0.7962,0.4666,-43.3500,19.2000,4.0500,9.1363,-1.7621,0.5100,0.7352,0.0629,-0.0975,-60.1500,31.5000,-36.7500,5.7300,0.5600,-7.7700,0.1309,0.9348,-0.8683,-1.5625,-33.8750,8.8750,182.6875,15.3750,-141.1875,0
747.098,9.0549,0.2346,-0.9673,0.2697,0.7885,0.4783,-43.3500,19.2000,4.0500,9.0237,-1.7142,0.2705,0.4994,0.0613,-0.0354,-60.9000,31.8000,-36.7500,13.7900,4.3000,-14.8600,0.8487,0.7494,0.1364,-1.5625,-33.8750,8.8750,182.6875,15.3750,-141.1875,0
747.108,8.9423,0.2107,-0.9888,0.0626,0.8527,0.5127,-43.2000,19.5000,3.9000,9.3972,-1.5131,0.1006,0.2817,0.1527,0.0061,-60.1500,32.2500,-37.2000,2.6300,-0.4000,-6.7800,1.5577,-1.0897,0.4407,-1.5625,-33.8750,8.8750,183.0000,15.0625,-142.2500,0
747.113,9.0549,0.4693,-1.1037,-0.1593,0.8471,0.5462,-43.2000,19.5000,3.9000,9.3972,-1.5131,0.1006,0.2817,0.1527,0.0061,-60.1500,32.2500,-37.2000,2.6300,-0.4000,-6.7800,1.5577,-1.0897,0.4407,-1.5625,-33.8750,8.8750,183.0000,15.0625,-142.2500,0
747.118,9.0549,0.4693,-1.1037,-0.1593,0.8471,0.5462,-43.6500,18.9000,4.0500,9.6414,-1.1013,-0.0790,0.0269,0.1681,0.0842,-59.8500,31.2000,-38.1000,3.0300,-0.0800,-6.6400,1.6046,0.1211,0.6720,0.1875,-34.3750,10.0000,183.2500,15.3125,-143.1875,0
747.123,9.2751,0.5315,-1.2498,-0.3339,0.8154,0.6243,-43.6500,18.9000,4.0500,9.6414,-1.1013,-0.0790,0.0269,0.1681,0.0842,-59.8500,31.2000,-38.1000,3.0300,-0.0800,-6.6400,1.6046,0.1211,0.6720,0.1875,-34.3750,10.0000,183.2500,15.3125,-143.1875,0
747.128,9.2751,0.5315,-1.2498,-0.3339,0.8154,0.6243,-44.1000,19.2000,3.6000,10.3238,-0.0551,-0.4381,-0.1178,0.1940,0.1844,-61.5000,32.4000,-38.4000,4.4700,0.2300,-9.0900,2.0835,1.6395,0.8432,0.1875,-34.3750,10.0000,183.2500,16.3125,-144.3125,0
747.133,10.0533,0.8404,-1.2354,-0.4018,0.7522,0.7136,-44.1000,19.2000,3.6000,10.3238,-0.0551,-0.4381,-0.1178,0.1940,0.1844,-61.5000,32.4000,-38.4000,4.4700,0.2300,-9.0900,2.0813,2.5667,1.2806,0.1875,-34.3750,10.0000,183.3125,17.8750,-145.3750,0
747.139,10.0533,0.8404,-1.2354,-0.4018,0.7522,0.7136,-45.1500,17.7000,5.8500,11.4467,1.3862,-1.7573,-0.1655,0.1655,0.2121,-61.5000,32.4000,-38.4000,5.9500,-3.5600,-15.0100,2.0813,2.5667,1.2806,0.1875,-34.3750,10.0000,183.5000,19.1875,-146.3750,0
747.148,11.5448,1.0511,-1.2474,-0.4306,0.7317,0.8474,-45.1500,17.7000,5.8500,12.9191,2.8419,-3.5314,-0.0847,0.0045,0.1439,-62.5500,30.4500,-37.6500,8.4300,2.9400,-14.1500,1.8588,2.0213,1.2283,0.1875,-34.3750,10.0000,183.5000,19.1875,-146.3750,0
747.158,13.1226,1.5802,-1.2785,-0.4149,0.7104,0.9931,-45.1500,17.7000,5.8500,13.2567,3.0406,-4.2018,0.2374,-0.1092,-0.0280,-62.5500,30.4500,-37.6500,8.1800,8.0000,-11.8200,0.8879,0.6120,0.4865,0.1875,-34.3750,10.0000,183.5625,19.6250,-146.8750,0
747.163,13.6015,2.3248,-1.6448,-0.4437,0.6387,1.0243,-45.1500,17.7000,5.8500,13.2567,3.0406,-4.2018,0.2374,-0.1092,-0.0280,-62.5500,30.4500,-37.6500,8.1800,8.0000,-11.8200,0.8879,0.6120,0.4865,0.1875,-34.3750,10.0000,183.5625,19.6250,-146.8750,0
747.168,13.6015,2.3248,-1.6448,-0.4437,0.6387,1.0243,-45.3000,18.0000,5.2500,12.1027,2.7246,-2.7605,0.8042,0.0677,-0.1879,-61.0500,31.6500,-36.9000,-2.1100,11.5700,-5.4600,0.2869,-0.4156,-0.0109,-1.6875,-34.3750,11.0625,183.5625,19.4375,-147.1250,0
747.173,13.4961,3.3543,-2.2362,-0.4541,0.5215,0.8855,-45.3000,18.0000,5.2500,12.1027,2.7246,-2.7605,0.8042,0.0677,-0.1879,-61.0500,31.6500,-36.9000,-2.1100,11.5700,-5.4600,0.2869,-0.4156,-0.0109,-1.6875,-34.3750,11.0625,183.5625,19.4375,-147.1250,0
747.178,13.4961,3.3543,-2.2362,-0.4541,0.5215,0.8855,-45.7500,16.8000,6.3000,10.5776,0.8236,-0.7207,1.3568,0.3800,-0.2705,-61.5000,30.4500,-36.9000,5.1700,9.9400,-6.6000,0.6130,-0.1789,0.3992,-1.6875,-34.3750,11.0625,183.7500,19.5000,-147.5000,0
747.188,13.0388,4.0821,-2.2625,-0.2681,0.4117,0.7088,-44.8500,16.9500,6.4500,10.0293,-1.9225,0.5794,1.5359,0.6328,-0.2646,-61.9500,33.4500,-38.2500,6.3600,3.9200,-8.5400,0.8607,0.4156,0.1582,-1.6875,-34.3750,11.0625,183.6875,19.7500,-148.0000,0
747.197,12.0069,4.4484,-1.6951,-0.0029,0.3307,0.6118,-46.8000,17.5500,5.2500,10.3190,-3.4860,0.0694,1.1858,0.5971,-0.1079,-61.9500,33.4500,-38.2500,6.2900,-0.9000,-10.1000,0.8650,0.0327,-0.0611,-1.6875,-34.3750,11.0625,183.5625,19.7500,-148.4375,0
747.205,10.5584,4.5274,-0.5626,0.1780,0.4258,0.5614,-46.8000,17.5500,5.2500,10.4004,-2.6767,-1.7119,0.4439,0.4533,-0.0133,-60.1500,31.5000,-37.9500,3.1000,3.2000,-9.1400,0.5934,-0.3283,-0.0556,-1.6875,-34.3750,11.0625,183.5000,19.5625,-148.8125,0
747.210,9.6391,3.9720,-0.0072,0.2982,0.6243,0.5510,-46.8000,17.5500,5.2500,10.4004,-2.6767,-1.7119,0.4439,0.4533,-0.0133,-61.5000,33.1500,-38.4000,3.1000,3.2000,-9.1400,0.5934,-0.3283,-0.0556,-1.6875,-34.3750,11.0625,183.5000,19.5625,-148.8125,0
747.215,9.6391,3.9720,-0.0072,0.2982,0.6243,0.5510,-46.8000,17.5500,5.2500,9.5026,-0.5818,-2.3056,-0.3027,0.3661,0.0013,-61.5000,33.1500,-38.4000,2.6200,4.2100,-8.2800,0.2356,-0.2007,-0.0295,-3.5625,-33.2500,12.3750,182.6875,19.4375,-148.9375,0
747.219,9.2201,3.2753,0.0479,0.4104,0.7112,0.5681,-44.5500,18.0000,4.9500,9.5026,-0.5818,-2.3056,-0.3027,0.3661,0.0013,-61.0500,33.1500,-37.6500,2.6200,4.2100,-8.2800,0.2356,-0.2007,-0.0295,-3.5625,-33.2500,12.3750,182.6875,19.4375,-148.9375,0
747.224,9.2201,3.2753,0.0479,0.4104,0.7112,0.5681,-44.5500,18.0000,4.9500,8.7676,1.4126,-1.1229,-0.6411,0.4708,-0.0147,-61.0500,33.1500,-37.6500,2.6200,4.2100,-8.2800,0.0600,-0.0894,-0.0142,-3.5625,-33.2500,12.3750,182.6875,19.3750,-149.0000,0
747.229,8.3366,2.7869,0.2490,0.4652,0.6920,0.6073,-44.8500,17.7000,6.9000,8.7676,1.4126,-1.1229,-0.6411,0.4708,-0.0147,-61.0500,33.1500,-37.6500,3.4500,3.2800,-8.5700,0.0600,-0.0894,-0.0142,-3.5625,-33.2500,12.3750,182.6875,19.3750,-149.0000,0
747.234,8.3366,2.7869,0.2490,0.4652,0.6920,0.6073,-44.8500,17.7000,6.9000,8.8370,3.6559,-0.5004,-0.6515,0.5361,-0.0466,-61.0500,33.1500,-37.6500,3.4500,3.2800,-8.5700,-0.0556,-0.0720,-0.0589,-3.5625,-33.2500,12.3750,182.6875,19.3750,-148.9375,0
747.239,7.3526,2.4086,0.6009,0.4602,0.6566,0.6755,-45.7500,16.8000,6.3000,8.8370,3.6559,-0.5004,-0.6515,0.5361,-0.0466,-61.2000,31.8000,-36.0000,3.4500,4.6500,-7.6800,-0.0556,-0.0720,-0.0589,-3.5625,-33.2500,12.3750,182.6250,19.3125,-148.8750,0
747.248,7.7357,2.2601,1.1133,0.3872,0.7314,0.7370,-47.4000,17.4000,6.1500,9.2296,5.2577,-0.7183,-0.4231,0.5305,-0.0797,-61.2000,31.8000,-36.0000,3.6300,5.4500,-7.4400,-0.0949,-0.0556,-0.0829,-3.5625,-33.2500,12.3750,182.6250,19.2500,-148.8750,0
747.258,7.8889,1.7526,1.7980,0.3392,0.8724,0.7522,-47.4000,17.4000,6.1500,9.2392,6.0980,-1.2258,0.3254,0.5007,-0.0669,-61.6500,32.2500,-37.2000,3.6600,5.4800,-7.4200,0.0022,-0.0589,-0.0884,-3.5625,-33.2500,12.3750,182.6250,19.2500,-148.8750,0
747.263,7.8889,1.7526,1.7980,0.3392,0.8724,0.7522,-47.4000,17.4000,6.1500,8.9878,5.4875,-1.5155,1.1570,0.5084,-0.0424,-61.6500,29.8500,-37.5000,3.6600,5.4800,-7.4200,0.0022,-0.0589,-0.0884,-3.5625,-33.2500,12.3750,182.6250,19.2500,-148.8750,0
747.268,8.3342,1.1301,2.9066,0.3483,0.6856,0.7525,-47.4000,17.4000,6.1500,8.9878,5.4875,-1.5155,1.1570,0.5084,-0.0424,-61.6500,29.8500,-37.5000,3.4900,5.3900,-7.3800,0.1396,-0.0818,-0.0731,-2.8750,-32.8750,13.0625,181.6875,19.1875,-148.9375,0
747.273,8.3342,1.1301,2.9066,0.3483,0.6856,0.7525,-47.4000,17.4000,6.1500,9.0118,3.7110,-1.0798,1.6265,0.5263,-0.0301,-61.8000,31.2000,-38.4000,3.4900,5.3900,-7.3800,0.1396,-0.0818,-0.0731,-2.8750,-32.8750,13.0625,181.6875,19.1875,-148.9375,0
747.278,9.4475,0.6321,2.9928,0.5542,0.8761,0.7157,-45.9000,15.9000,6.1500,9.0118,3.7110,-1.0798,1.6265,0.5263,-0.0301,-61.8000,31.2000,-38.4000,3.4800,4.9200,-7.5900,0.2323,-0.0982,-0.0502,-2.8750,-32.8750,13.0625,181.6250,19.1250,-149.1250,0
747.283,9.4475,0.6321,2.9928,0.5542,0.8761,0.7157,-45.9000,15.9000,6.1500,9.1482,1.5107,-0.6728,1.5956,0.5502,-0.0413,-60.7500,30.0000,-38.1000,3.4800,4.9200,-7.5900,0.2880,-0.1287,-0.0415,-2.8750,-32.8750,13.0625,181.6250,19.0625,-149.2500,0
747.289,9.7731,0.4932,2.9951,0.9022,0.8791,0.6254,-44.2500,14.5500,6.0000,9.4834,-0.1221,-0.4788,1.5956,0.5502,-0.0413,-61.5000,31.6500,-38.1000,3.4400,4.8000,-7.7300,0.2880,-0.1287,-0.0415,-2.8750,-32.8750,13.0625,181.5625,18.9375,-149.4375,0
747.298,9.9335,0.6297,2.9090,1.1684,0.7376,0.5191,-46.5000,15.0000,7.0500,9.4834,-0.1221,-0.4788,1.1540,0.5484,-0.0373,-61.5000,31.6500,-38.4000,3.4100,4.7800,-7.8300,0.3272,-0.1560,-0.0371,-2.8750,-32.8750,13.0625,181.5625,18.9375,-149.4375,0
747.308,9.7947,0.6129,2.7007,1.2084,0.5985,0.4378,-44.4000,15.1500,7.9500,9.8210,-0.5531,-0.7207,0.5183,0.5153,-0.0253,-61.5000,31.6500,-38.4000,3.4700,4.3000,-8.0300,0.3643,-0.1658,-0.0316,-2.8750,-32.8750,13.0625,181.5625,18.8750,-149.6875,0
747.313,9.7947,0.6129,2.7007,1.2084,0.5985,0.4378,-44.4000,15.1500,7.9500,9.8210,-0.5531,-0.7207,-0.0296,0.4666,-0.0139,-61.5000,31.2000,-38.1000,3.4700,4.3000,-8.0300,0.3643,-0.1658,-0.0316,-2.8750,-32.8750,13.0625,181.5625,18.8750,-149.6875,0
747.318,9.7612,0.5507,1.8890,1.0584,0.5969,0.4061,-44.4000,15.1500,7.9500,9.8019,0.4621,-0.8356,-0.0296,0.4666,-0.0139,-61.5000,31.2000,-38.1000,3.4600,4.1500,-8.1200,0.3807,-0.1604,-0.0316,-2.5000,-32.5625,12.3750,180.6875,18.8125,-149.8750,0
747.323,9.7612,0.5507,1.8890,1.0584,0.5969,0.4061,-44.4000,15.1500,7.9500,9.8019,0.4621,-0.8356,-0.3134,0.4282,-0.0035,-61.5000,31.2000,-38.1000,3.4600,4.1500,-8.1200,0.3807,-0.1604,-0.0316,-2.5000,-32.5625,12.3750,180.6875,18.8125,-149.8750,0
747.328,9.9240,0.5483,1.0271,0.8641,0.5620,0.4101,-44.8500,13.6500,6.1500,9.6247,1.4533,-0.7877,-0.3134,0.4282,-0.0035,-61.5000,31.2000,-38.1000,3.4000,4.0000,-8.1800,0.3556,-0.1451,-0.0316,-2.5000,-32.5625,12.3750,180.6250,18.6875,-150.1250,0
747.333,9.9240,0.5483,1.0271,0.8641,0.5620,0.4101,-44.8500,13.6500,6.1500,9.6247,1.4533,-0.7877,-0.2806,0.4346,-0.0040,-60.9000,31.5000,-37.2000,3.4000,4.0000,-8.1800,0.3076,-0.1287,-0.0316,-2.5000,-32.5625,12.3750,180.6250,18.6250,-150.2500,0
747.339,9.9240,0.5387,0.2346,0.6123,0.4477,0.4226,-46.0500,15.3000,6.0000,9.3925,2.1500,-0.7590,-0.1396,0.4354,-0.0059,-60.9000,31.5000,-37.2000,3.3400,3.8800,-8.2600,0.3076,-0.1287,-0.0316,-2.5000,-32.5625,12.3750,180.5625,18.5625,-150.4375,0
747.348,9.9838,0.6536,-0.4764,0.3946,0.3688,0.4242,-46.0500,12.7500,5.2500,9.3948,2.5091,-0.6823,0.0293,0.4287,-0.0045,-62.4000,31.5000,-37.5000,3.3600,4.0200,-8.2000,0.2618,-0.1200,-0.0316,-2.5000,-32.5625,12.3750,180.5625,18.5625,-150.4375,0
747.358,9.6367,0.6656,-0.8212,0.3152,0.3445,0.4040,-45.9000,14.7000,6.9000,9.3733,2.1883,-0.6440,0.2409,0.4447,-0.0077,-62.5500,30.4500,-38.4000,3.3500,4.2400,-8.1200,0.2280,-0.1124,-0.0295,-2.5000,-32.5625,12.3750,180.5625,18.5000,-150.5625,0
747.363,9.6367,0.6656,-0.8212,0.3152,0.3445,0.4040,-44.8500,12.9000,6.4500,9.3733,2.1883,-0.6440,0.2409,0.4447,-0.0077,-60.7500,30.4500,-37.3500,3.3500,4.2400,-8.1200,0.2280,-0.1124,-0.0295,-2.5000,-32.5625,12.3750,180.5625,18.5000,-150.5625,0
747.368,10.0461,0.6129,-0.9888,0.3099,0.4109,0.3768,-44.8500,12.9000,6.4500,9.3230,1.8890,-0.4501,0.4141,0.4679,-0.0192,-60.7500,30.4500,-37.3500,3.3400,4.3800,-8.0400,0.2182,-0.1069,-0.0305,-3.0000,-31.7500,15.0625,179.7500,18.4375,-150.6875,0
747.373,10.0461,0.6129,-0.9888,0.3099,0.4109,0.3768,-44.8500,12.9000,6.4500,9.3230,1.8890,-0.4501,0.4141,0.4679,-0.0192,-60.7500,30.4500,-37.3500,3.3400,4.3800,-8.0400,0.2182,-0.1069,-0.0305,-3.0000,-31.7500,15.0625,179.7500,18.4375,-150.6875,0
747.378,9.8354,0.5938,-0.6632,0.3230,0.3994,0.3491,-44.8500,12.9000,6.4500,9.4475,1.5610,-0.3472,0.4831,0.4906,-0.0392,-60.7500,30.4500,-37.3500,3.2600,4.3200,-8.1200,0.2193,-0.1014,-0.0349,-3.0000,-31.7500,15.0625,179.7500,18.3750,-150.8125,0
747.383,9.8354,0.5938,-0.6632,0.3230,0.3994,0.3491,-44.8500,12.9000,6.4500,9.4475,1.5610,-0.3472,0.4831,0.4906,-0.0392,-62.7000,30.6000,-37.5000,3.2600,4.3200,-8.1200,0.2225,-0.0982,-0.0327,-3.0000,-31.7500,15.0625,179.6875,18.3750,-150.9375,0
747.389,9.9719,0.3376,-0.1077,0.4314,0.4005,0.3403,-45.9000,15.1500,5.1000,9.6175,1.4820,-0.1460,0.5055,0.5084,-0.0421,-62.7000,30.6000,-37.5000,3.2900,4.2600,-8.1500,0.2225,-0.0982,-0.0327,-3.0000,-31.7500,15.0625,179.6875,18.3750,-150.9375,0
747.398,9.9934,0.3112,0.4884,0.5633,0.3078,0.3184,-45.0000,14.5500,7.0500,9.8354,1.4533,-0.0096,0.4599,0.5052,-0.0400,-62.7000,30.6000,-37.5000,3.3200,4.1500,-8.1900,0.2083,-0.0894,-0.0295,-3.0000,-31.7500,15.0625,179.6875,18.3125,-151.0625,0
747.402,9.7229,0.4381,1.3671,0.6278,0.3192,0.2923,-45.7500,15.0000,7.0500,9.8354,1.4533,-0.0096,0.4599,0.5052,-0.0400,-63.0000,31.6500,-37.6500,3.3200,4.1500,-8.1900,0.1811,-0.0807,-0.0305,-3.0000,-31.7500,15.0625,179.6875,18.3125,-151.1875,0
747.409,9.7229,0.4381,1.3671,0.6278,0.3192,0.2923,-45.7500,15.0000,6.0000,9.7923,1.5395,0.1580,0.4037,0.4919,-0.0322,-63.0000,31.6500,-37.6500,3.3300,4.1200,-8.2600,0.1811,-0.0807,-0.0305,-3.0000,-31.7500,15.0625,179.6875,18.3125,-151.1875,0
747.414,9.6630,0.6800,2.1332,0.6787,0.3504,0.2726,-46.8000,15.0000,4.2000,9.6798,1.8292,0.2705,0.4037,0.4919,-0.0322,-62.5500,31.6500,-38.4000,3.3300,4.1200,-8.2600,0.1440,-0.0654,-0.0295,-2.5000,-32.5625,14.3750,178.9375,18.2500,-151.3125,0
747.419,9.6630,0.6800,2.1332,0.6787,0.3504,0.2726,-46.8000,15.0000,4.2000,9.6798,1.8292,0.2705,0.3195,0.4847,-0.0192,-62.5500,31.6500,-38.4000,3.2900,4.1400,-8.2400,0.1440,-0.0654,-0.0295,-2.5000,-32.5625,14.3750,178.9375,18.2500,-151.3125,0
747.427,9.7420,1.0080,3.6176,0.8697,0.2518,0.1966,-46.8000,15.0000,4.2000,9.6223,2.0207,0.3184,0.2318,0.4772,-0.0056,-61.2000,30.6000,-37.2000,3.3000,4.2000,-8.1900,0.1113,-0.0502,-0.0305,-2.5000,-32.5625,14.3750,178.9375,18.2500,-151.3750,0
747.432,9.2512,1.2043,3.7541,0.7096,0.1543,0.1412,-46.8000,15.0000,4.2000,9.6223,2.0207,0.3184,0.2318,0.4772,-0.0056,-62.2500,31.9500,-39.6000,3.3000,4.2000,-8.1900,0.1113,-0.0502,-0.0305,-2.5000,-32.5625,14.3750,178.8750,18.2500,-151.4375,0
747.439,9.2512,1.2043,3.7541,0.7096,0.1543,0.1412,-46.0500,14.5500,6.7500,9.6893,2.0255,0.3352,0.1759,0.4429,-0.0056,-62.2500,31.9500,-39.6000,3.2900,4.3500,-8.1900,0.0916,-0.0415,-0.0295,-2.5000,-32.5625,14.3750,178.8750,18.2500,-151.4375,0
747.447,9.3350,1.2354,2.6049,0.4799,0.2846,0.1191,-48.0000,16.2000,6.9000,9.7061,2.0758,0.5387,0.0818,0.4005,0.0061,-61.6500,31.5000,-37.2000,3.2200,4.3900,-8.1800,0.0873,-0.0393,-0.0295,-2.5000,-32.5625,14.3750,178.8750,18.2500,-151.5000,0
747.452,9.3948,1.4892,2.0542,0.3496,0.4133,0.1236,-48.0000,16.2000,6.9000,9.7061,2.0758,0.5387,0.0818,0.4005,0.0061,-61.8000,32.4000,-37.3500,3.2200,4.3900,-8.1800,0.0873,-0.0393,-0.0295,-2.5000,-32.5625,14.3750,178.8750,18.1875,-151.5625,0
747.459,9.3948,1.4892,2.0542,0.3496,0.4133,0.1236,-47.4000,14.4000,7.2000,9.6702,1.9465,0.5626,-0.0581,0.3451,0.0509,-61.8000,32.4000,-37.3500,3.2800,4.3600,-8.1800,0.0851,-0.0371,-0.0251,-2.5000,-32.5625,14.3750,178.8750,18.1875,-151.5625,0
747.464,9.7659,1.5562,2.0303,0.1439,0.4908,0.1346,-48.3000,13.8000,7.3500,9.6319,1.9992,0.3926,-0.1719,0.3344,0.0733,-61.8000,32.4000,-37.3500,3.2800,4.3600,-8.1800,0.0851,-0.0371,-0.0251,-3.1875,-33.2500,14.3750,178.2500,18.1875,-151.6250,0
747.469,9.7659,1.5562,2.0303,0.1439,0.4908,0.1346,-48.3000,13.8000,7.3500,9.6319,1.9992,0.3926,-0.1719,0.3344,0.0733,-61.8000,32.4000,-37.3500,3.2800,4.4200,-8.1300,0.0840,-0.0338,-0.0229,-3.1875,-33.2500,14.3750,178.2500,18.1875,-151.6250,0
747.474,9.6079,1.6137,1.7717,-0.0075,0.4922,0.1311,-47.5500,14.5500,6.7500,9.6654,1.9944,0.1484,-0.2859,0.3182,0.0818,-62.5500,30.9000,-36.1500,3.2800,4.4200,-8.1300,0.0840,-0.0338,-0.0229,-3.1875,-33.2500,14.3750,178.2500,18.1875,-151.6875,0
747.479,9.6079,1.6137,1.7717,-0.0075,0.4922,0.1311,-47.5500,14.5500,6.7500,9.6654,1.9944,0.1484,-0.2859,0.3182,0.0818,-62.5500,30.9000,-36.1500,3.2600,4.3700,-8.1600,0.0840,-0.0404,-0.0240,-3.1875,-33.2500,14.3750,178.2500,18.1875,-151.6875,0
747.484,9.5816,1.3695,1.5299,-0.0277,0.4538,0.1132,-47.5500,14.5500,6.7500,9.5648,1.9680,0.0503,-0.3288,0.3006,0.0941,-62.7000,31.0500,-37.5000,3.2600,4.3700,-8.1600,0.0894,-0.0415,-0.0229,-3.1875,-33.2500,14.3750,178.2500,18.1875,-151.6875,0
747.490,9.5792,0.8882,1.3599,0.0133,0.4439,0.1085,-47.5500,14.5500,6.7500,9.5648,1.9680,0.0503,-0.3288,0.3006,0.0941,-62.7000,31.0500,-37.5000,3.2500,4.3800,-8.1800,0.0894,-0.0415,-0.0229,-3.1875,-33.2500,14.3750,178.2500,18.1875,-151.6875,0
747.499,9.5792,0.8882,1.3599,0.0133,0.4439,0.1085,-47.1000,14.2500,7.0500,9.4763,1.8507,-0.3711,-0.3635,0.3006,0.1202,-62.2500,31.6500,-36.1500,3.2500,4.3400,-8.1600,0.0949,-0.0425,-0.0185,-3.1875,-33.2500,14.3750,178.2500,18.1250,-151.7500,0
747.503,9.9671,0.5267,1.0439,-0.0314,0.3613,0.1138,-46.2000,13.6500,5.8500,9.4044,1.7166,-0.5770,-0.3539,0.3035,0.1378,-62.7000,31.0500,-37.2000,3.2500,4.3400,-8.1600,0.1036,-0.0436,-0.0164,-3.1875,-33.2500,14.3750,178.2500,18.1250,-151.8125,0
747.510,9.6295,0.4980,0.8045,-0.0802,0.2968,0.1148,-46.2000,13.6500,5.8500,9.4044,1.7166,-0.5770,-0.3539,0.3035,0.1378,-62.7000,31.0500,-37.2000,3.2700,4.2800,-8.1600,0.1036,-0.0436,-0.0164,-3.1875,-33.2500,14.3750,178.2500,18.1250,-151.8125,0
747.514,9.6295,0.4980,0.8045,-0.0802,0.2968,0.1148,-46.9500,13.2000,6.9000,9.3877,1.7645,-0.6177,-0.3299,0.3206,0.1407,-62.7000,30.3000,-36.4500,3.2700,4.2800,-8.1600,0.1091,-0.0458,-0.0153,-2.1875,-32.1875,15.0625,177.5000,18.1250,-151.8750,0
747.520,9.6486,0.7159,0.5411,-0.1564,0.2910,0.1250,-46.9500,13.2000,6.9000,9.3805,1.7909,-0.6057,-0.3299,0.3206,0.1407,-62.7000,30.3000,-36.4500,3.2500,4.2300,-8.1600,0.1091,-0.0458,-0.0153,-2.1875,-32.1875,15.0625,177.5000,18.1250,-151.8750,0
747.528,9.6486,0.8954,0.1748,-0.2587,0.2321,0.1162,-47.7000,13.9500,7.2000,9.3805,1.7909,-0.6057,-0.3504,0.3325,0.1601,-63.3000,28.9500,-36.1500,3.2200,4.1300,-8.2000,0.1102,-0.0480,-0.0098,-2.1875,-32.1875,15.0625,177.5000,18.1250,-151.9375,0
747.533,9.6486,0.8954,0.1748,-0.2587,0.2321,0.1162,-47.7000,13.9500,7.2000,9.3206,1.7980,-0.6033,-0.3174,0.3589,0.1583,-63.3000,28.9500,-36.1500,3.2200,4.1300,-8.2000,0.1124,-0.0458,-0.0076,-2.1875,-32.1875,15.0625,177.5000,18.0625,-152.0625,0
747.540,9.5792,1.0415,0.1341,-0.3501,0.1761,0.1063,-47.7000,13.9500,7.2000,9.3063,2.0207,-0.3879,-0.3174,0.3589,0.1583,-63.3000,28.9500,-36.1500,3.1700,4.2300,-8.1800,0.1124,-0.0458,-0.0076,-2.1875,-32.1875,15.0625,177.5000,18.0625,-152.0625,0
747.548,9.5409,1.1349,0.2705,-0.4314,0.1327,0.0909,-46.0500,15.0000,7.3500,9.3230,2.0423,0.0144,-0.2782,0.3858,0.1532,-62.5500,29.7000,-35.5500,3.1500,4.3000,-8.1600,0.1167,-0.0469,-0.0033,-2.1875,-32.1875,15.0625,177.5000,18.0625,-152.1250,0
747.553,9.5409,1.1349,0.2705,-0.4314,0.1327,0.0909,-46.8000,15.3000,9.6000,9.3230,2.0423,0.0144,-0.2169,0.3989,0.1479,-62.5500,29.7000,-35.5500,3.1500,4.3000,-8.1600,0.1298,-0.0480,0.0033,-2.1875,-32.1875,15.0625,177.5000,18.0625,-152.1875,0
747.560,9.5409,1.1420,0.6009,-0.4652,0.1138,0.0853,-46.8000,15.3000,9.6000,9.3685,1.8818,0.2442,-0.1855,0.4066,0.1532,-62.5500,29.7000,-35.5500,3.1500,4.3100,-8.1800,0.1298,-0.0480,0.0033,-2.1875,-32.1875,15.0625,177.5000,18.0625,-152.1875,0
747.565,9.5409,1.1420,0.6009,-0.4652,0.1138,0.0853,-46.8000,14.5500,8.1000,9.3685,1.8818,0.2442,-0.1855,0.4066,0.1532,-61.9500,32.2500,-36.4500,3.1500,4.3100,-8.1800,0.1462,-0.0513,0.0109,-2.5625,-32.5625,15.0625,176.9375,18.0000,-152.2500,0
747.570,9.4523,1.0606,0.8404,-0.4732,0.1268,0.0810,-46.2000,13.2000,8.2500,9.4715,1.4317,0.3855,-0.1972,0.4197,0.1577,-61.9500,32.2500,-36.4500,3.2000,4.2700,-8.1700,0.1462,-0.0513,0.0109,-2.5625,-32.5625,15.0625,176.9375,18.0000,-152.2500,0
747.575,9.4523,1.0606,0.8404,-0.4732,0.1268,0.0810,-46.2000,13.2000,8.2500,9.4715,1.4317,0.3855,-0.1972,0.4197,0.1577,-61.6500,31.0500,-34.2000,3.2000,4.2700,-8.1700,0.1625,-0.0622,0.0164,-2.5625,-32.5625,15.0625,176.9375,18.0000,-152.3750,0
747.580,9.4547,1.0080,1.2641,-0.4394,0.1295,0.0909,-47.4000,13.9500,7.6500,9.6079,1.2450,0.6273,-0.2238,0.4117,0.1625,-61.6500,31.0500,-34.2000,3.2300,4.3000,-8.1800,0.1625,-0.0622,0.0164,-2.5625,-32.5625,15.0625,176.9375,18.0000,-152.3750,0
747.585,9.4547,1.0080,1.2641,-0.4394,0.1295,0.0909,-47.4000,13.9500,7.6500,9.6079,1.2450,0.6273,-0.2238,0.4117,0.1625,-62.7000,31.0500,-36.0000,3.2200,4.1600,-8.2100,0.1734,-0.0654,0.0240,-2.5625,-32.5625,15.0625,176.9375,18.0000,-152.5000,0
747.590,9.4858,1.0247,1.7358,-0.3888,0.1631,0.1061,-47.4000,13.9500,7.6500,9.6582,1.0798,0.6297,-0.2779,0.3941,0.1623,-62.7000,31.0500,-36.0000,3.2200,4.1600,-8.2100,0.1734,-0.0654,0.0240,-2.5625,-32.5625,15.0625,176.9375,18.0000,-152.5000,0
747.599,9.4308,1.0343,2.1141,-0.3054,0.1940,0.1148,-47.4000,13.9500,7.6500,9.6175,1.1325,0.6560,-0.2939,0.3808,0.1716,-62.4000,31.5000,-34.9500,3.2000,4.0600,-8.2700,0.1756,-0.0720,0.0240,-2.5625,-32.5625,15.0625,176.9375,17.9375,-152.5625,0
747.604,9.4308,1.0343,2.1141,-0.3054,0.1940,0.1148,-46.6500,13.9500,8.2500,9.6175,1.1325,0.6560,-0.2939,0.3808,0.1716,-62.4000,31.5000,-34.9500,3.2000,4.0600,-8.2700,0.1734,-0.0687,0.0229,-2.5625,-32.5625,15.0625,176.9375,17.9375,-152.6875,0
747.610,9.4571,0.9146,2.2482,-0.2172,0.2246,0.1292,-45.9000,13.6500,10.0500,9.6007,1.3719,0.6608,-0.2699,0.3826,0.1724,-62.4000,31.5000,-34.9500,3.2300,3.9800,-8.2800,0.1734,-0.0687,0.0229,-2.5625,-32.5625,15.0625,176.9375,17.9375,-152.6875,0
747.615,9.4571,0.9146,2.2482,-0.2172,0.2246,0.1292,-45.9000,13.6500,10.0500,9.6007,1.3719,0.6608,-0.2699,0.3826,0.1724,-62.5500,31.9500,-34.3500,3.2300,3.9800,-8.2800,0.1636,-0.0709,0.0175,-2.1875,-32.1875,16.3750,176.3125,17.9375,-152.8125,0
747.620,9.3996,0.9481,2.1955,-0.1292,0.2678,0.1466,-47.5500,15.0000,8.1000,9.6845,1.4246,0.6752,-0.2052,0.3834,0.1687,-62.5500,31.9500,-34.3500,3.2100,4.0400,-8.2900,0.1636,-0.0709,0.0175,-2.1875,-32.1875,16.3750,176.3125,17.9375,-152.8125,0
747.628,9.3613,0.8811,2.0710,-0.0693,0.2920,0.1620,-47.5500,15.0000,8.1000,9.6031,1.4557,0.6895,-0.1226,0.3808,0.1695,-62.5500,31.9500,-34.3500,3.2000,4.0100,-8.3000,0.1494,-0.0698,0.0142,-2.1875,-32.1875,16.3750,176.3125,17.9375,-152.9375,0
747.633,9.3613,0.8811,2.0710,-0.0693,0.2920,0.1620,-46.8000,15.0000,8.8500,9.6031,1.4557,0.6895,-0.1226,0.3808,0.1695,-63.9000,31.8000,-34.5000,3.2000,4.0100,-8.3000,0.1418,-0.0644,0.0098,-2.1875,-32.1875,16.3750,176.3125,17.8750,-153.0000,0
747.640,9.3901,0.8859,1.8411,-0.0368,0.2987,0.1756,-46.8000,15.0000,8.8500,9.6031,1.3312,0.8595,-0.0557,0.3760,0.1591,-63.9000,31.8000,-34.5000,3.1900,4.1200,-8.2700,0.1418,-0.0644,0.0098,-2.1875,-32.1875,16.3750,176.3125,17.8750,-153.0000,0
747.648,9.3781,0.8404,1.7406,-0.0131,0.3024,0.1953,-46.8000,15.0000,8.8500,9.6007,1.2426,0.8691,-0.0485,0.3675,0.1609,-63.4500,30.6000,-34.5000,3.1500,4.0700,-8.3000,0.1374,-0.0622,0.0055,-2.1875,-32.1875,16.3750,176.3125,17.8750,-153.1250,0
747.653,9.3781,0.8404,1.7406,-0.0131,0.3024,0.1953,-46.8000,15.0000,8.8500,9.6007,1.2426,0.8691,-0.0485,0.3675,0.1609,-63.4500,30.3000,-35.2500,3.1500,4.0700,-8.3000,0.1374,-0.0622,0.0055,-2.1875,-32.1875,16.3750,176.3125,17.8750,-153.1875,0
747.660,9.3948,0.8236,1.5802,0.0128,0.3043,0.2076,-46.8000,14.5500,9.9000,9.5600,1.3048,0.6895,-0.0562,0.3693,0.1644,-63.4500,30.3000,-35.2500,3.2100,4.0900,-8.3000,0.1353,-0.0611,0.0022,-2.1875,-32.1875,16.3750,176.3125,17.8750,-153.1875,0
747.664,9.4667,0.7805,1.4676,0.0541,0.3067,0.2228,-46.8000,14.5500,9.9000,9.5984,1.2570,0.7254,-0.0562,0.3693,0.1644,-63.0000,30.4500,-33.6000,3.2100,4.0900,-8.3000,0.1353,-0.0611,0.0022,-1.7500,-31.7500,16.0000,175.6250,17.8125,-153.2500,0
747.669,9.4667,0.7805,1.4676,0.0541,0.3067,0.2228,-46.5000,15.0000,8.1000,9.5984,1.2570,0.7254,-0.0272,0.3792,0.1647,-63.0000,30.4500,-33.6000,3.2200,4.0500,-8.3100,0.1320,-0.0567,0.0000,-1.7500,-31.7500,16.0000,175.6250,17.8125,-153.2500,0
747.674,9.4236,0.8404,1.3384,0.1066,0.3072,0.2419,-46.5000,15.0000,8.1000,9.5361,0.9888,0.6033,-0.0179,0.3866,0.1537,-62.4000,31.0500,-33.7500,3.2200,4.0500,-8.3100,0.1320,-0.0567,0.0000,-1.7500,-31.7500,16.0000,175.6250,17.8125,-153.3125,0
747.679,9.4236,0.8404,1.3384,0.1066,0.3072,0.2419,-46.8000,14.5500,9.1500,9.5361,0.9888,0.6033,-0.0179,0.3866,0.1537,-62.4000,31.0500,-33.7500,3.1900,4.0300,-8.3100,0.1265,-0.0524,-0.0055,-1.7500,-31.7500,16.0000,175.6250,17.8125,-153.3125,0
747.684,9.5481,0.8954,1.2234,0.1687,0.3333,0.2563,-46.8000,14.5500,9.1500,9.4595,0.8787,0.4142,-0.0405,0.3885,0.1580,-63.0000,29.7000,-33.3000,3.1900,4.0300,-8.3100,0.1233,-0.0513,-0.0065,-1.7500,-31.7500,16.0000,175.6250,17.8125,-153.4375,0
747.690,9.5481,0.8954,1.2234,0.1687,0.3333,0.2563,-47.8500,14.2500,9.6000,9.4595,0.8787,0.4142,-0.0405,0.3885,0.1580,-63.0000,29.7000,-33.3000,3.1700,3.9900,-8.3300,0.1233,-0.0513,-0.0065,-1.7500,-31.7500,16.0000,175.6250,17.8125,-153.4375,0
747.699,9.5816,0.9026,1.1660,0.2241,0.3453,0.2659,-47.8500,14.2500,9.6000,9.5409,0.9768,0.4501,-0.0461,0.4069,0.1639,-63.0000,29.7000,-33.3000,3.1600,3.9200,-8.3200,0.1145,-0.0480,-0.0131,-1.7500,-31.7500,16.0000,175.6250,17.8125,-153.5000,0
747.704,9.5553,1.0080,1.1516,0.2489,0.3437,0.2798,-47.8500,14.2500,9.6000,9.6079,1.3455,0.5243,-0.0632,0.4319,0.1591,-63.9000,31.5000,-34.5000,3.1600,3.9200,-8.3200,0.1069,-0.0502,-0.0142,-1.7500,-31.7500,16.0000,175.6250,17.7500,-153.5625,0
747.710,9.5553,1.0080,1.1516,0.2489,0.3437,0.2798,-47.1000,14.5500,10.2000,9.6079,1.3455,0.5243,-0.0632,0.4319,0.1591,-63.9000,31.5000,-34.5000,3.1000,3.8800,-8.3600,0.1069,-0.0502,-0.0142,-1.7500,-31.7500,16.0000,175.6250,17.7500,-153.5625,0
747.715,9.5026,1.0606,1.0008,0.2579,0.3509,0.2899,-47.1000,14.5500,10.2000,9.5241,1.5562,0.7183,-0.0472,0.4330,0.1585,-63.4500,29.8500,-34.5000,3.1100,3.9900,-8.3300,0.1014,-0.0425,-0.0153,-2.1875,-31.7500,15.0625,175.1250,17.7500,-153.6250,0
747.720,9.5026,1.0606,1.0008,0.2579,0.3509,0.2899,-46.8000,12.3000,10.6500,9.5241,1.5562,0.7183,-0.0472,0.4330,0.1585,-63.4500,29.8500,-34.5000,3.1100,3.9900,-8.3300,0.1014,-0.0425,-0.0153,-2.1875,-31.7500,15.0625,175.1250,17.7500,-153.6250,0
747.728,9.4355,1.0774,0.9385,0.2206,0.3651,0.3016,-46.6500,12.1500,9.0000,9.4930,1.6975,0.7733,0.0128,0.4501,0.1612,-63.9000,31.5000,-34.2000,3.1200,4.0600,-8.3100,0.1014,-0.0404,-0.0131,-2.1875,-31.7500,15.0625,175.1250,17.7500,-153.6875,0
747.733,9.3158,1.0989,0.9816,0.1612,0.3691,0.3144,-46.6500,12.1500,9.0000,9.4571,1.5036,0.7997,0.0655,0.4668,0.1668,-63.9000,31.5000,-34.2000,3.1200,4.0600,-8.3100,0.1014,-0.0404,-0.0131,-2.1875,-31.7500,15.0625,175.1250,17.6875,-153.7500,0
747.740,9.3158,1.0989,0.9816,0.1612,0.3691,0.3144,-47.1000,13.8000,9.1500,9.4571,1.5036,0.7997,0.0655,0.4668,0.1668,-64.5000,30.9000,-34.8000,3.1600,4.0300,-8.3100,0.1014,-0.0393,-0.0131,-2.1875,-31.7500,15.0625,175.1250,17.6875,-153.7500,0
747.748,9.4068,1.0822,1.1109,0.0837,0.3874,0.3336,-47.1000,13.8000,9.1500,9.6486,1.2617,0.8284,0.0386,0.4748,0.1735,-64.3500,30.3000,-33.7500,3.1000,4.0600,-8.3200,0.1113,-0.0425,-0.0142,-2.1875,-31.7500,15.0625,175.0625,17.6875,-153.8125,0
747.753,9.5217,1.0367,1.3216,0.0314,0.3925,0.3445,-47.1000,13.8000,9.1500,9.5768,1.2378,0.7709,-0.0179,0.4663,0.1892,-64.3500,30.3000,-33.7500,3.1000,4.0600,-8.3200,0.1113,-0.0425,-0.0142,-2.1875,-31.7500,15.0625,175.0625,17.6875,-153.8750,0
747.760,9.5217,1.0367,1.3216,0.0314,0.3925,0.3445,-47.1000,13.8000,9.1500,9.4355,1.3719,0.6249,-0.0179,0.4663,0.1892,-63.0000,31.6500,-32.8500,3.0900,4.0100,-8.3500,0.1178,-0.0502,-0.0153,-2.1875,-31.7500,15.0625,175.0625,17.6875,-153.8750,0
747.765,9.5193,0.9409,1.4365,-0.0112,0.3944,0.3547,-47.1000,13.8000,9.1500,9.4355,1.3719,0.6249,-0.0562,0.4751,0.2020,-63.0000,31.6500,-32.8500,3.0900,4.0100,-8.3500,0.1178,-0.0502,-0.0153,-2.1875,-31.7500,15.0625,174.5000,17.6250,-153.9375,0
747.770,9.5193,0.9409,1.4365,-0.0112,0.3944,0.3547,-46.9500,12.9000,9.7500,9.5361,1.5490,0.4788,-0.0562,0.4751,0.2020,-63.0000,31.6500,-32.8500,3.1200,3.9500,-8.3700,0.1222,-0.0502,-0.0120,-2.1875,-32.5625,17.5625,174.5000,17.6250,-153.9375,0
747.774,9.6151,1.0127,1.4413,-0.0450,0.3984,0.3496,-46.9500,12.9000,9.7500,9.5361,1.5490,0.4788,-0.0826,0.4847,0.2118,-63.9000,31.0500,-33.0000,3.1200,3.9500,-8.3700,0.1222,-0.0502,-0.0120,-2.1875,-32.5625,17.5625,174.5000,17.6250,-154.0000,0
747.780,9.6151,1.0415,1.4126,-0.0698,0.3901,0.3413,-48.6000,12.3000,10.2000,9.3805,1.4868,0.6081,-0.0826,0.4847,0.2118,-63.9000,31.0500,-33.0000,3.0900,3.9700,-8.3300,0.1189,-0.0458,-0.0142,-2.1875,-32.5625,17.5625,174.5000,17.6250,-154.0000,0
747.784,9.6151,1.0415,1.4126,-0.0698,0.3901,0.3413,-48.6000,12.3000,10.2000,9.3805,1.4868,0.6081,-0.0810,0.5033,0.2284,-63.1500,29.1000,-33.4500,3.0900,3.9700,-8.3300,0.1156,-0.0382,-0.0120,-2.1875,-32.5625,17.5625,174.4375,17.6250,-154.1250,0
747.790,9.5074,1.0367,1.3982,-0.0917,0.3842,0.3176,-47.8500,11.2500,10.2000,9.3446,1.3479,0.6895,-0.1386,0.5201,0.2342,-63.1500,29.1000,-33.4500,3.0600,3.9700,-8.3800,0.1156,-0.0382,-0.0120,-2.1875,-32.5625,17.5625,174.4375,17.6250,-154.1250,0
747.799,9.4451,1.0247,1.3599,-0.1404,0.3709,0.3014,-46.9500,12.1500,8.7000,9.3374,1.5060,0.4932,-0.1386,0.5201,0.2342,-64.3500,29.1000,-32.7000,3.0800,3.8800,-8.4100,0.1058,-0.0338,-0.0153,-2.1875,-32.5625,17.5625,174.4375,17.6250,-154.1875,0
747.804,9.4451,1.0247,1.3599,-0.1404,0.3709,0.3014,-46.9500,12.1500,8.7000,9.3374,1.5060,0.4932,-0.2188,0.5295,0.2625,-64.3500,29.1000,-32.7000,3.0800,3.8800,-8.4100,0.1036,-0.0349,-0.0131,-2.1875,-32.5625,17.5625,174.4375,17.5625,-154.2500,0
747.810,9.4164,1.0008,1.3551,-0.1924,0.3555,0.2819,-46.9500,12.1500,8.7000,9.2488,1.7142,0.3615,-0.3011,0.5356,0.2819,-64.6500,27.9000,-32.4000,3.1100,3.9400,-8.3500,0.1036,-0.0349,-0.0131,-2.1875,-32.5625,17.5625,174.4375,17.5625,-154.2500,0
747.815,9.4164,1.0008,1.3551,-0.1924,0.3555,0.2819,-46.9500,12.1500,8.7000,9.2488,1.7142,0.3615,-0.3011,0.5356,0.2819,-64.5000,28.9500,-33.3000,3.1100,3.9400,-8.3500,0.1069,-0.0393,-0.0098,-1.7500,-32.5625,16.7500,173.8750,17.5625,-154.3125,0
747.820,9.6031,1.0750,1.2809,-0.2441,0.3456,0.2614,-46.5000,12.3000,11.4000,9.2919,1.5682,0.2083,-0.3661,0.5550,0.2982,-64.5000,28.9500,-33.3000,3.0700,4.0200,-8.3500,0.1069,-0.0393,-0.0098,-1.7500,-32.5625,16.7500,173.8750,17.5625,-154.3125,0
747.828,9.6750,1.1420,1.1971,-0.2934,0.3000,0.2441,-47.8500,13.5000,8.8500,9.2608,1.6496,0.2298,-0.4293,0.5713,0.3152,-64.5000,29.7000,-32.5500,3.0600,4.0600,-8.3100,0.1156,-0.0447,-0.0098,-1.7500,-32.5625,16.7500,173.8750,17.5625,-154.3750,0
747.833,9.6750,1.1420,1.1971,-0.2934,0.3000,0.2441,-47.8500,13.5000,8.8500,9.2608,1.6496,0.2298,-0.4293,0.5713,0.3152,-64.5000,29.7000,-32.5500,3.0600,4.0600,-8.3100,0.1156,-0.0447,-0.0098,-1.7500,-32.5625,16.7500,173.8750,17.5000,-154.4375,0
747.840,9.6462,1.2091,1.2378,-0.3347,0.2606,0.2201,-46.9500,11.7000,9.7500,9.3278,2.1069,0.3232,-0.4090,0.6006,0.3496,-64.5000,29.7000,-32.5500,3.0200,4.0600,-8.3400,0.1244,-0.0545,-0.0033,-1.7500,-32.5625,16.7500,173.8750,17.5000,-154.4375,0
747.848,9.4571,1.3072,1.2857,-0.3640,0.2254,0.2049,-46.9500,12.4500,10.8000,9.3948,2.2601,0.7159,-0.3083,0.6129,0.3866,-65.8500,29.8500,-30.1500,2.9500,4.0300,-8.3500,0.1320,-0.0654,0.0000,-1.7500,-32.5625,16.7500,173.8750,17.5000,-154.5000,0
747.853,9.4571,1.3072,1.2857,-0.3640,0.2254,0.2049,-46.9500,12.4500,10.8000,9.3948,2.2601,0.7159,-0.3083,0.6129,0.3866,-65.8500,29.8500,-30.1500,2.9500,4.0300,-8.3500,0.1320,-0.0654,0.0000,-1.7500,-32.5625,16.7500,173.8750,17.4375,-154.5625,0
747.860,9.3254,1.3503,1.4916,-0.4290,0.2161,0.1791,-48.7500,11.7000,9.7500,9.2440,1.8435,1.3551,-0.2462,0.6358,0.3938,-65.8500,29.8500,-30.1500,2.9400,4.1000,-8.3900,0.1418,-0.0676,0.0033,-1.7500,-32.5625,16.7500,173.8750,17.4375,-154.5625,0
747.865,9.3254,1.3503,1.4916,-0.4290,0.2161,0.1791,-48.7500,11.7000,9.7500,9.2440,1.8435,1.3551,-0.2462,0.6358,0.3938,-64.8000,29.7000,-31.3500,2.9400,4.1000,-8.3900,0.1418,-0.0676,0.0033,-1.7500,-32.5625,16.7500,173.3750,17.4375,-154.6875,0
747.870,9.2225,1.2737,1.7980,-0.5132,0.2118,0.1793,-48.7500,11.7000,9.7500,9.3565,1.4317,1.6281,-0.2835,0.6560,0.4255,-64.8000,29.7000,-31.3500,2.9900,4.0700,-8.4100,0.1462,-0.0687,0.0142,-1.5000,-31.5000,16.7500,173.3750,17.4375,-154.6875,0
747.875,9.2225,1.2737,1.7980,-0.5132,0.2118,0.1793,-46.9500,13.9500,10.8000,9.3565,1.4317,1.6281,-0.2835,0.6560,0.4255,-64.8000,29.7000,-31.3500,2.9900,4.0700,-8.4100,0.1462,-0.0687,0.0142,-1.5000,-31.5000,16.7500,173.3750,17.3750,-154.7500,0
747.880,9.2991,1.1636,2.1907,-0.6110,0.1876,0.1756,-46.9500,13.9500,10.8000,9.4739,1.1564,1.7334,-0.3709,0.6491,0.4676,-65.8500,30.6000,-32.4000,3.0900,3.9100,-8.4700,0.1462,-0.0785,0.0240,-1.5000,-31.5000,16.7500,173.3750,17.3750,-154.7500,0
747.885,9.2991,1.1636,2.1907,-0.6110,0.1876,0.1756,-45.9000,12.9000,12.1500,9.5122,1.1013,1.5443,-0.3709,0.6491,0.4676,-65.5500,29.7000,-31.3500,3.0900,3.9100,-8.4700,0.1364,-0.0764,0.0273,-1.5000,-31.5000,16.7500,173.3750,17.3750,-154.8750,0
747.890,9.3350,1.0415,2.4948,-0.6845,0.1748,0.1716,-45.9000,12.9000,12.1500,9.5122,1.1013,1.5443,-0.4914,0.6424,0.4962,-65.5500,29.7000,-31.3500,3.0900,3.9100,-8.4900,0.1364,-0.0764,0.0273,-1.5000,-31.5000,16.7500,173.3750,17.3750,-154.8750,0
747.899,9.3637,0.9313,2.7533,-0.7181,0.1514,0.1647,-46.5000,12.0000,10.6500,9.3925,1.2785,1.5538,-0.5718,0.6379,0.5223,-65.4000,30.6000,-29.4000,3.0300,3.9500,-8.4900,0.1167,-0.0742,0.0316,-1.5000,-31.5000,16.7500,173.3750,17.3125,-154.9375,0
747.904,9.3637,0.9313,2.7533,-0.7181,0.1514,0.1647,-47.8500,10.5000,12.0000,9.3613,1.4796,1.4892,-0.5718,0.6379,0.5223,-65.4000,30.6000,-29.4000,3.0300,3.9500,-8.4900,0.1004,-0.0698,0.0338,-1.5000,-31.5000,16.7500,173.3750,17.3125,-155.0000,0
747.910,9.3829,0.8595,2.6264,-0.7242,0.1492,0.1516,-47.8500,10.5000,12.0000,9.3613,1.4796,1.4892,-0.6001,0.6587,0.5454,-65.4000,30.6000,-29.4000,3.0000,4.0400,-8.4800,0.1004,-0.0698,0.0338,-1.5000,-31.5000,16.7500,173.3750,17.3125,-155.0000,0
747.915,9.2416,0.8212,2.6097,-0.6909,0.1410,0.1458,-47.8500,10.5000,12.0000,9.3781,1.4676,1.7262,-0.5449,0.6640,0.5697,-66.0000,30.9000,-29.5500,3.0000,4.0400,-8.4800,0.0905,-0.0622,0.0371,-1.0625,-31.7500,16.3750,172.8750,17.3125,-155.0625,0
747.920,9.2416,0.8212,2.6097,-0.6909,0.1410,0.1458,-47.8500,10.5000,12.0000,9.3781,1.4676,1.7262,-0.5449,0.6640,0.5697,-66.0000,30.9000,-29.5500,2.9900,4.0700,-8.4900,0.0905,-0.0622,0.0371,-1.0625,-31.7500,16.3750,172.8750,17.3125,-155.0625,0
747.925,9.2057,0.8380,2.4469,-0.6550,0.1599,0.1396,-48.4500,12.9000,12.1500,9.3470,1.1349,1.7478,-0.5023,0.6776,0.5905,-66.0000,30.9000,-29.5500,2.9900,4.0700,-8.4900,0.0818,-0.0545,0.0393,-1.0625,-31.7500,16.3750,172.9375,17.2500,-155.1250,0
747.930,9.2057,0.8380,2.4469,-0.6550,0.1599,0.1396,-48.4500,12.9000,12.1500,9.3470,1.1349,1.7478,-0.5023,0.6776,0.5905,-66.0000,30.9000,-29.5500,3.0200,4.0600,-8.4900,0.0818,-0.0545,0.0393,-1.0625,-31.7500,16.3750,172.9375,17.2500,-155.1250,0
747.935,9.1818,0.9290,2.3367,-0.6302,0.1679,0.1439,-48.3000,12.3000,12.4500,9.4906,0.9505,1.8411,-0.4810,0.6789,0.6190,-66.0000,30.9000,-29.5500,3.0200,4.0600,-8.4900,0.0731,-0.0469,0.0458,-1.0625,-31.7500,16.3750,172.9375,17.2500,-155.1250,0
747.940,9.1818,0.9290,2.3367,-0.6302,0.1679,0.1439,-48.3000,12.3000,12.4500,9.4906,0.9505,1.8411,-0.4810,0.6789,0.6190,-64.6500,28.3500,-28.6500,3.0400,4.0400,-8.5200,0.0731,-0.0469,0.0458,-1.0625,-31.7500,16.3750,172.9375,17.2500,-155.1250,0
747.949,9.3230,1.0630,2.1979,-0.6456,0.1466,0.1394,-48.0000,10.9500,12.6000,9.7564,2.5522,2.9305,-0.4485,0.6587,0.6744,-66.7500,30.0000,-28.0500,2.9300,3.9700,-8.5100,0.0633,-0.0349,0.0513,-1.0625,-31.7500,16.3750,173.0000,17.2500,-155.1875,0
747.960,10.1849,1.1133,1.9992,-0.6464,0.0903,0.1034,-46.2000,12.1500,12.6000,10.2041,2.4421,1.1779,-0.5766,0.6190,0.7410,-66.7500,30.0000,-29.2500,2.7500,3.6700,-9.0900,0.0295,-0.0109,0.0600,-1.0625,-31.7500,16.3750,173.0000,17.2500,-155.2500,0
747.964,10.1945,1.2330,2.3727,-0.7019,0.0698,0.0783,-47.4000,10.9500,12.6000,10.1418,-0.3472,2.0710,-0.0426,0.7568,0.7072,-66.7500,30.0000,-29.2500,2.7500,3.6700,-9.0900,0.0295,-0.0109,0.0600,-1.0625,-31.7500,16.3750,173.0000,17.2500,-155.2500,0
747.969,10.1945,1.2330,2.3727,-0.7019,0.0698,0.0783,-47.4000,10.9500,12.6000,10.1418,-0.3472,2.0710,-0.0426,0.7568,0.7072,-66.9000,27.9000,-29.4000,3.0100,4.3000,-8.7100,-0.0316,0.0589,0.0720,-1.7500,-31.0625,17.0625,172.6250,17.3125,-155.1875,0
747.974,9.7659,0.8930,2.3583,-0.6827,0.1290,0.0677,-47.4000,10.9500,12.6000,9.9335,-1.6065,1.5538,-0.5431,0.7429,0.7232,-66.9000,27.9000,-29.4000,3.0100,4.3000,-8.7100,-0.0316,0.0589,0.0720,-1.7500,-31.0625,17.0625,172.6250,17.3125,-155.1875,0
747.979,9.7659,0.8930,2.3583,-0.6827,0.1290,0.0677,-47.4000,10.9500,12.6000,9.9335,-1.6065,1.5538,-0.5431,0.7429,0.7232,-66.7500,29.2500,-28.0500,2.7800,3.9700,-8.6900,-0.1156,0.1244,0.0884,-1.7500,-31.0625,17.0625,172.6875,17.3750,-155.1250,0
747.984,9.8186,0.6201,1.9513,-0.5526,0.1540,0.0640,-45.9000,10.9500,13.3500,9.7995,0.0000,1.0151,-0.8724,0.6925,0.7959,-66.7500,29.2500,-28.0500,2.7800,3.9700,-8.6900,-0.1996,0.1418,0.1233,-1.7500,-31.0625,17.0625,172.7500,17.5000,-155.0625,0
747.990,9.8186,0.6201,1.9513,-0.5526,0.1540,0.0640,-45.9000,10.9500,13.3500,10.1921,1.2761,1.6113,-0.8724,0.6925,0.7959,-66.7500,27.3000,-27.3000,3.0000,3.3300,-8.9800,-0.1996,0.1418,0.1233,-1.7500,-31.0625,17.0625,172.8125,17.6250,-154.8750,0
748.000,10.2759,0.6823,1.8531,-0.5033,0.0560,0.0453,-45.4500,10.6500,12.9000,10.1921,1.2761,1.6113,-0.8066,0.7109,0.8665,-66.7500,27.3000,-27.3000,2.8900,3.3400,-9.0900,-0.2902,0.2160,0.1484,-1.7500,-31.0625,17.0625,172.8125,17.6250,-154.8750,0
748.010,11.2120,0.8787,1.7454,-0.5788,-0.0546,0.0152,-46.5000,12.3000,13.8000,11.8585,-0.0527,1.4748,-0.4783,0.7485,0.8796,-66.0000,27.3000,-28.0500,2.7600,4.1800,-9.3000,-0.3927,0.3425,0.1593,-1.7500,-31.0625,17.0625,172.8750,17.8750,-154.6875,0
748.014,12.0045,0.9816,1.7023,-0.6320,-0.1290,-0.0123,-46.6500,10.9500,13.3500,11.8585,-0.0527,1.4748,-0.3139,0.8005,0.8876,-66.0000,27.3000,-28.0500,2.7600,4.1800,-9.3000,-0.3927,0.3425,0.1593,-1.7500,-31.0625,17.0625,172.8750,17.8750,-154.6875,0
748.019,12.0045,0.9816,1.7023,-0.6320,-0.1290,-0.0123,-46.6500,10.9500,13.3500,12.2080,-2.3056,0.3735,-0.3139,0.8005,0.8876,-66.9000,27.9000,-26.7000,2.8500,4.7600,-9.4800,-0.5171,0.5018,0.1658,-1.7500,-31.7500,16.0000,172.6250,18.1250,-154.3750,0
748.024,12.5767,1.1564,1.2785,-0.5913,-0.1545,-0.0530,-46.6500,10.9500,13.3500,12.2080,-2.3056,0.3735,-0.5550,0.8138,0.9515,-66.9000,27.9000,-26.7000,2.8500,4.7600,-9.4800,-0.5171,0.5018,0.1658,-1.7500,-31.7500,16.0000,172.6250,18.1250,-154.3750,0
748.029,12.5767,1.1564,1.2785,-0.5913,-0.1545,-0.0530,-46.6500,10.9500,13.3500,12.5959,-2.2098,0.3974,-0.5550,0.8138,0.9515,-66.9000,28.3500,-26.4000,3.0200,5.7100,-9.4900,-0.6512,0.6774,0.1898,-1.7500,-31.7500,16.0000,172.7500,18.5000,-154.0000,0
748.034,12.9215,0.9553,0.8763,-0.4511,-0.2257,-0.0959,-46.6500,11.7000,13.3500,12.5959,-2.2098,0.3974,-0.6102,0.9332,1.0651,-66.9000,28.3500,-26.4000,3.0200,5.7100,-9.4900,-0.6305,0.9556,0.1953,-1.7500,-31.7500,16.0000,172.7500,19.0625,-153.6250,0
748.040,12.9215,0.9553,0.8763,-0.4511,-0.2257,-0.0959,-46.6500,11.7000,13.3500,12.4882,-0.3352,0.7805,-0.3347,0.9417,0.9926,-67.6500,27.1500,-27.9000,2.8900,1.5800,-10.9100,-0.6305,0.9556,0.1953,-1.7500,-31.7500,16.0000,172.8125,19.7500,-153.1250,0
748.050,12.5313,0.9146,0.9218,-0.3493,-0.2579,-0.1111,-46.2000,13.2000,14.4000,11.2719,0.0838,1.0630,-0.4559,0.9758,0.8130,-67.2000,27.0000,-25.5000,1.9300,7.3700,-8.8000,-0.7156,1.2435,0.2323,-1.7500,-31.7500,16.0000,172.8125,19.7500,-153.1250,0
748.060,12.6079,1.0319,0.7254,-0.2683,-0.3184,-0.1463,-45.7500,11.5500,14.2500,11.7268,-0.0766,1.4341,-0.5852,1.1069,0.8535,-69.0000,27.0000,-25.8000,2.4100,5.0500,-9.4900,-0.7352,1.4955,0.4560,-1.7500,-31.7500,16.0000,172.9375,20.5625,-152.6875,0
748.065,11.7699,1.2785,0.3089,-0.2334,-0.4413,-0.1948,-46.0500,12.0000,13.8000,11.7268,-0.0766,1.4341,-0.5852,1.1069,0.8535,-69.0000,27.0000,-25.8000,2.4100,5.0500,-9.4900,-0.7352,1.4955,0.4560,-1.7500,-31.7500,16.0000,172.9375,20.5625,-152.6875,0
748.070,11.7699,1.2785,0.3089,-0.2334,-0.4413,-0.1948,-46.0500,12.0000,13.8000,12.0931,0.1820,1.2929,-0.7210,1.1255,1.0469,-69.0000,27.0000,-25.8000,2.3100,3.1100,-9.6000,-0.5967,1.8173,0.6512,-2.5625,-32.1875,16.0000,172.9375,21.6250,-152.3125,0
748.074,11.1043,1.8052,-0.1269,-0.2465,-0.5852,-0.2393,-46.0500,13.5000,14.5500,12.0931,0.1820,1.2929,-0.7210,1.1255,1.0469,-69.0000,27.0000,-25.8000,2.3100,3.1100,-9.6000,-0.5967,1.8173,0.6512,-2.5625,-32.1875,16.0000,172.9375,21.6250,-152.3125,0
748.080,10.6734,2.6097,-0.3591,-0.3544,-0.7485,-0.3043,-46.0500,13.5000,14.5500,11.7124,0.5626,0.9361,-0.8551,1.0834,1.1900,-68.8500,25.5000,-24.6000,2.5700,4.3300,-8.8600,-0.4385,2.1402,0.8050,-2.5625,-32.1875,16.0000,173.1250,22.8750,-152.0000,0
748.084,10.6734,2.6097,-0.3591,-0.3544,-0.7485,-0.3043,-46.0500,13.5000,14.5500,11.7124,0.5626,0.9361,-0.8551,1.0834,1.1900,-68.8500,25.5000,-24.6000,2.5700,4.3300,-8.8600,-0.2323,2.4162,1.0167,-2.5625,-32.1875,16.0000,173.3750,24.3750,-151.8125,0
748.091,10.0054,3.1149,-0.3112,-0.5209,-0.9084,-0.4032,-46.0500,13.5000,14.5500,11.2767,1.7214,0.6680,-0.8785,1.0872,1.2446,-68.8500,25.5000,-24.6000,2.8800,3.1300,-8.5100,-0.2323,2.4162,1.0167,-2.5625,-32.1875,16.0000,173.7500,26.0000,-151.6875,0
748.100,9.3470,3.3088,-0.5100,-0.6195,-0.9601,-0.5470,-44.8500,11.7000,15.4500,11.0804,2.2410,-0.5555,-0.7877,1.1618,1.2902,-68.7000,25.8000,-24.3000,4.3200,4.4500,-8.2800,-0.1080,2.7107,1.2479,-2.5625,-32.1875,16.0000,173.7500,26.0000,-151.6875,0
748.110,8.9376,3.1340,-1.3240,-0.5257,-0.8439,-0.7266,-45.1500,12.1500,14.7000,11.0397,2.0063,-1.1516,-0.5489,1.2835,1.3073,-69.0000,24.6000,-23.2500,3.4300,4.6000,-8.3700,-0.1604,2.9180,1.4781,-2.5625,-32.1875,16.0000,174.1875,27.8125,-151.5625,0
748.115,8.9376,3.1340,-1.3240,-0.5257,-0.8439,-0.7266,-45.9000,11.4000,13.6500,11.0397,2.0063,-1.1516,-0.5489,1.2835,1.3073,-69.0000,24.6000,-23.2500,3.4300,4.6000,-8.3700,-0.1604,2.9180,1.4781,-2.5625,-32.1875,16.0000,174.1875,27.8125,-151.5625,0
748.120,9.8043,3.1651,-1.8531,-0.3184,-0.8159,-0.8455,-45.9000,11.4000,13.6500,10.8649,1.0942,-1.6879,-0.3528,1.3864,1.2484,-69.7500,23.8500,-22.2000,4.4700,5.7900,-8.4200,0.1593,2.8820,1.6832,-4.7500,-32.1875,14.7500,174.7500,29.6875,-151.6875,0
748.125,9.8043,3.1651,-1.8531,-0.3184,-0.8159,-0.8455,-45.9000,12.1500,14.4000,10.2759,0.4405,-1.9609,-0.3528,1.3864,1.2484,-69.7500,23.8500,-22.2000,4.4700,5.7900,-8.4200,0.1593,2.8820,1.6832,-4.7500,-32.1875,14.7500,174.7500,29.6875,-151.6875,0
748.130,10.5273,2.3224,-1.5419,-0.2046,-1.1695,-0.9126,-45.9000,12.1500,14.4000,10.2759,0.4405,-1.9609,-0.2297,1.4208,1.1213,-68.7000,23.4000,-22.9500,5.0800,6.8500,-8.0600,0.4592,3.0772,1.9373,-4.7500,-32.1875,14.7500,175.3125,31.6875,-152.0000,0
748.135,10.5273,2.3224,-1.5419,-0.2046,-1.1695,-0.9126,-45.9000,12.1500,14.4000,9.8306,0.4405,-1.4724,-0.2297,1.4208,1.1213,-68.7000,23.4000,-22.9500,5.0800,6.8500,-8.0600,0.8465,3.1383,2.2733,-4.7500,-32.1875,14.7500,176.0625,33.8125,-152.6875,0
748.141,10.2568,1.2665,-0.4286,-0.0157,-1.2862,-0.9084,-44.8500,12.4500,13.6500,9.8306,0.4405,-1.4724,-0.1673,1.4717,0.9931,-68.7000,23.4000,-22.9500,5.4900,6.6600,-7.7400,0.8465,3.1383,2.2733,-4.7500,-32.1875,14.7500,177.0000,36.0000,-153.7500,0
748.150,10.3453,0.2155,-0.2682,0.2020,-1.1650,-0.8319,-43.9500,13.5000,12.7500,10.0030,0.8739,-1.1061,-0.2356,1.4885,0.9100,-70.8000,22.8000,-20.5500,5.6200,5.8200,-8.2600,1.1345,3.0336,2.7107,-4.7500,-32.1875,14.7500,177.0000,36.0000,-153.7500,0
748.160,10.3525,-0.0383,-1.1971,0.5868,-1.3259,-0.7829,-44.5500,13.0500,13.0500,10.3166,1.2570,-0.3807,-0.2659,1.4938,0.9014,-70.8000,22.8000,-20.5500,5.9200,5.8100,-8.5800,1.3068,2.8896,3.1132,-4.7500,-32.1875,14.7500,178.1250,38.1875,-155.1250,0
748.165,10.3525,-0.0383,-1.1971,0.5868,-1.3259,-0.7829,-44.5500,13.0500,13.0500,9.9982,1.7047,1.0750,-0.2859,1.5252,0.8567,-70.8000,22.8000,-20.5500,5.9200,5.8100,-8.5800,1.3068,2.8896,3.1132,-4.7500,-32.1875,14.7500,178.1250,38.1875,-155.1250,0
748.170,9.8282,0.5339,-1.5347,0.7504,-1.4581,-0.8066,-43.3500,13.9500,11.8500,9.9982,1.7047,1.0750,-0.2859,1.5252,0.8567,-70.5000,23.4000,-21.0000,5.9400,5.0800,-7.0300,1.5708,2.7391,3.4568,-9.1875,-31.5000,14.2500,228.9375,40.3125,-156.9375,0
748.175,9.8282,0.5339,-1.5347,0.7504,-1.4581,-0.8066,-43.3500,13.9500,11.8500,10.8649,1.0056,1.1732,-0.2785,1.4858,0.7512,-70.5000,23.4000,-21.0000,5.9400,5.0800,-7.0300,1.5708,2.7391,3.4568,-9.1875,-31.5000,14.2500,228.9375,40.3125,-156.9375,0
748.179,10.0604,1.4054,-1.4365,0.7879,-1.6182,-0.8671,-43.2000,14.2500,10.2000,10.8649,1.0056,1.1732,-0.2785,1.4858,0.7512,-70.3500,23.5500,-20.1000,8.6300,8.5000,-10.1800,1.8675,2.9278,3.8855,-9.1875,-31.5000,14.2500,223.0000,42.6250,-159.1875,0
748.184,10.0604,1.4054,-1.4365,0.7879,-1.6182,-0.8671,-43.2000,14.2500,10.2000,10.8721,1.6568,0.4214,-0.4165,1.4583,0.5425,-70.3500,23.5500,-20.1000,8.6300,8.5000,-10.1800,2.0660,2.8143,4.3001,-9.1875,-31.5000,14.2500,217.0000,44.9375,-162.0000,0
748.191,9.6127,1.7693,-1.0989,0.7301,-1.8013,-0.9625,-43.2000,14.2500,10.2000,10.8721,1.6568,0.4214,-0.4165,1.4583,0.5425,-69.1500,22.0500,-20.1000,3.1000,10.5500,-9.6400,2.0660,2.8143,4.3001,-9.1875,-31.5000,14.2500,211.2500,46.6250,-165.3125,0
748.200,9.2871,1.5299,-0.6009,0.6033,-1.7136,-1.0584,-45.0000,14.2500,9.9000,10.0628,1.0918,1.4174,-0.6957,1.4549,0.2683,-68.2500,21.4500,-18.0000,1.4300,8.4600,-7.6900,2.2798,1.9319,4.3186,-9.1875,-31.5000,14.2500,211.2500,46.6250,-165.3125,0
748.210,9.2512,1.0558,-0.2801,0.4226,-1.4815,-1.1175,-43.6500,14.4000,10.0500,8.4946,0.5459,3.2274,-0.6947,1.5292,0.0834,-70.3500,22.5000,-18.3000,10.6800,5.7900,-8.5600,2.7642,1.9580,4.1473,-9.1875,-31.5000,14.2500,205.1250,48.1875,-169.0000,0
748.215,9.2512,1.0558,-0.2801,0.4226,-1.4815,-1.1175,-43.6500,14.4000,10.0500,7.6375,-0.4693,6.4021,-0.3400,1.6659,0.0973,-70.3500,22.5000,-18.3000,10.6800,5.7900,-8.5600,2.7642,1.9580,4.1473,-9.1875,-31.5000,14.2500,205.1250,48.1875,-169.0000,0
748.220,9.6223,0.5890,0.0048,0.1911,-1.2025,-1.1250,-42.0000,14.5500,9.1500,7.6375,-0.4693,6.4021,-0.3400,1.6659,0.0973,-68.2500,21.9000,-18.0000,12.6100,4.2700,-8.8600,3.0805,2.2406,3.7514,-16.1875,-28.5000,14.0000,199.0000,49.7500,-172.8750,0
748.225,10.0892,-0.0048,0.0862,-0.1466,-0.9065,-1.1175,-42.0000,14.5500,9.1500,7.6758,-1.4676,8.4204,0.1303,1.7307,0.1338,-68.2500,21.9000,-18.0000,12.6100,4.2700,-8.8600,3.0805,2.2406,3.7514,-16.1875,-28.5000,14.0000,199.0000,49.7500,-172.8750,0
748.230,10.0892,-0.0048,0.0862,-0.1466,-0.9065,-1.1175,-42.6000,15.4500,10.0500,7.6758,-1.4676,8.4204,0.1303,1.7307,0.1338,-68.2500,21.9000,-18.0000,14.0000,3.1800,-7.4200,3.0827,2.2940,3.1929,-16.1875,-28.5000,14.0000,193.4375,51.1875,-176.5625,0
748.235,10.3669,-0.4741,0.0024,-0.5255,-0.7269,-1.1250,-42.6000,15.4500,10.0500,9.0597,-2.3583,9.9647,0.6129,1.7776,0.1260,-68.2500,21.9000,-18.0000,14.0000,3.1800,-7.4200,2.5973,2.3824,2.5024,-16.1875,-28.5000,14.0000,189.0625,52.5000,-179.7500,0
748.241,10.3669,-0.4741,0.0024,-0.5255,-0.7269,-1.1250,-42.6000,15.4500,10.0500,10.5034,-3.2944,10.2951,0.6129,1.7776,0.1260,-69.1500,21.6000,-16.0500,10.5200,3.8500,-8.7900,2.5973,2.3824,2.5024,-16.1875,-28.5000,14.0000,186.1875,53.5625,177.8125,0
748.250,11.6119,-0.8308,0.2274,-0.7472,-0.8671,-1.1572,-42.6000,15.4500,10.0500,9.9671,-3.2872,8.7771,0.7410,1.4999,-0.0029,-68.7000,22.2000,-14.7000,3.8100,5.0800,-8.5800,1.5653,1.9373,2.0104,-16.1875,-28.5000,14.0000,186.1875,53.5625,177.8125,0
748.260,12.5504,-1.0199,1.5634,-0.8663,-1.2036,-1.1911,-42.7500,15.0000,9.9000,9.7707,-1.8100,5.5641,0.4503,1.0595,-0.1463,-66.6000,23.2500,-15.3000,3.5000,5.8300,-11.7700,0.9130,1.4901,1.9319,-16.1875,-28.5000,14.0000,184.1875,54.3750,175.8125,0
748.265,13.1298,-1.1037,2.8132,-0.9587,-1.3206,-1.1676,-42.7500,15.0000,9.9000,9.7707,-1.8100,5.5641,-0.3840,0.6014,-0.2529,-66.6000,23.2500,-15.3000,3.5000,5.8300,-11.7700,0.9130,1.4901,1.9319,-16.1875,-28.5000,14.0000,184.1875,54.3750,175.8125,0
748.270,13.1298,-1.1037,2.8132,-0.9587,-1.3206,-1.1676,-41.1000,15.4500,10.0500,9.1937,-1.3431,3.5243,-0.3840,0.6014,-0.2529,-67.3500,22.8000,-16.0500,-0.5100,13.1400,-11.6000,0.2018,1.2272,1.7104,-22.0625,-23.0000,16.0000,183.0000,54.9375,174.2500,0
748.275,13.1585,-0.8547,3.7661,-0.8852,-1.2974,-1.0962,-41.1000,15.4500,10.0500,9.1937,-1.3431,3.5243,-0.7711,0.2009,-0.3619,-67.3500,22.8000,-16.0500,-0.5100,13.1400,-11.6000,0.2018,1.2272,1.7104,-22.0625,-23.0000,16.0000,183.0000,54.9375,174.2500,0
748.279,13.1585,-0.8547,3.7661,-0.8852,-1.2974,-1.0962,-41.5500,15.4500,9.0000,8.4132,0.4597,3.6344,-0.7711,0.2009,-0.3619,-68.8500,22.5000,-15.6000,3.2300,7.4300,-10.3100,0.1254,0.3556,0.8694,-22.0625,-23.0000,16.0000,182.3750,55.0625,173.4375,0
748.284,12.2248,-0.6129,4.1420,-0.7717,-1.1663,-1.0501,-41.5500,15.4500,9.0000,8.4132,0.4597,3.6344,-0.7794,-0.0080,-0.4812,-68.8500,22.5000,-15.6000,3.2300,7.4300,-10.3100,0.1254,0.3556,0.8694,-22.0625,-23.0000,16.0000,182.3125,54.8125,173.7500,0
748.291,12.2248,-0.6129,4.1420,-0.7717,-1.1663,-1.0501,-42.3000,16.2000,9.3000,7.7309,1.6903,4.9991,-0.5462,-0.2899,-0.6424,-68.7000,22.9500,-14.7000,0.0400,6.0000,-6.1500,0.3043,-0.6130,-0.4767,-22.0625,-23.0000,16.0000,182.5625,54.1250,174.5000,0
748.300,11.0397,-0.0934,4.0725,-0.7101,-1.0032,-1.0882,-42.3000,16.2000,9.3000,6.7516,0.5507,3.7110,-0.0509,-0.5151,-0.8505,-68.7000,22.9500,-14.7000,-0.5700,6.8900,-5.4200,0.1418,-1.3472,-0.9872,-22.0625,-23.0000,16.0000,182.5625,54.1250,174.5000,0
748.310,10.0054,0.7183,3.7086,-0.7163,-0.8839,-1.1583,-42.4500,17.2500,9.6000,5.5186,2.1596,3.6847,0.7176,-0.5969,-0.9022,-68.4000,22.8000,-14.8500,0.1700,5.8300,-5.9800,-0.0567,-0.8203,-1.1432,-22.0625,-23.0000,16.0000,183.2500,53.6875,175.5000,0
748.315,9.0046,1.8124,3.3878,-0.7008,-0.7757,-1.2105,-42.4500,17.2500,9.6000,5.5186,2.1596,3.6847,0.7176,-0.5969,-0.9022,-68.4000,22.8000,-14.8500,0.1700,5.8300,-5.9800,-0.0567,-0.8203,-1.1432,-22.0625,-23.0000,16.0000,183.8125,53.1875,176.7500,0
748.320,9.0046,1.8124,3.3878,-0.7008,-0.7757,-1.2105,-40.6500,16.8000,9.1500,5.9472,1.8124,2.5570,0.6046,-0.6683,-1.0094,-69.0000,23.4000,-16.6500,1.1800,3.6300,-5.8400,-0.2673,-1.0123,-1.4748,-24.2500,-20.7500,16.0000,183.8125,53.1875,176.7500,0
748.325,8.4108,2.8371,2.6049,-0.6952,-0.6813,-1.2700,-40.6500,16.8000,9.1500,5.9472,1.8124,2.5570,0.6046,-0.6683,-1.0094,-69.0000,23.4000,-16.6500,1.1800,3.6300,-5.8400,-0.2673,-1.0123,-1.4748,-24.2500,-20.7500,16.0000,185.1875,52.1875,178.3125,0
748.330,8.4108,2.8371,2.6049,-0.6952,-0.6813,-1.2700,-39.7500,18.1500,9.3000,6.8881,0.3328,3.3567,1.1085,-0.6989,-1.1173,-67.9500,23.4000,-14.7000,-0.2500,1.6600,-4.9200,-0.4254,-1.9351,-1.7170,-24.2500,-20.7500,16.0000,185.1875,52.1875,178.3125,0
748.335,8.2624,3.2801,2.0877,-0.5849,-0.5364,-1.2979,-39.7500,18.1500,9.3000,6.8881,0.3328,3.3567,1.1085,-0.6989,-1.1173,-67.9500,23.4000,-14.7000,-0.2500,1.6600,-4.9200,-0.7538,-2.0191,-1.7148,-24.2500,-20.7500,16.0000,187.0000,51.0625,179.9375,0
748.341,8.9040,2.8802,1.5036,-0.2542,-0.4402,-1.3408,-39.9000,18.0000,8.8500,7.6207,-0.5315,4.7908,1.2913,-0.9014,-1.2087,-68.1000,24.0000,-17.5500,0.9700,1.5100,-5.5800,-0.7538,-2.0191,-1.7148,-24.2500,-20.7500,16.0000,189.1250,49.9375,-178.3125,0
748.350,9.3589,2.4014,1.0726,0.0338,-0.5180,-1.3502,-39.9000,18.0000,8.8500,7.6734,-1.4509,4.8626,1.1138,-1.2036,-1.2422,-67.3500,26.7000,-15.6000,1.0100,1.5000,-5.8900,-1.0614,-1.9951,-1.5839,-24.2500,-20.7500,16.0000,189.1250,49.9375,-178.3125,0
748.360,9.2871,2.1428,0.7302,0.2321,-0.5510,-1.3025,-39.9000,18.0000,8.8500,7.8602,-2.2913,4.3551,0.7722,-1.5244,-1.2239,-66.9000,26.4000,-18.6000,1.6600,1.9400,-7.0000,-1.3646,-1.8195,-1.3635,-24.2500,-20.7500,16.0000,191.6250,48.8750,-176.7500,0
748.365,9.2871,2.1428,0.7302,0.2321,-0.5510,-1.3025,-39.9000,18.0000,8.8500,8.2384,-2.3990,4.0582,0.7722,-1.5244,-1.2239,-66.9000,26.4000,-18.6000,1.6600,1.9400,-7.0000,-1.3646,-1.8195,-1.3635,-24.2500,-20.7500,16.0000,191.6250,48.8750,-176.7500,0
748.370,9.0190,2.0016,0.6153,0.3866,-0.3624,-1.2540,-40.5000,17.4000,9.7500,8.2384,-2.3990,4.0582,0.3749,-1.8429,-1.2108,-66.9000,26.4000,-18.6000,2.0600,2.9300,-7.5100,-1.5697,-1.8675,-1.1988,-22.5000,-23.0000,16.7500,193.9375,47.8125,-175.1875,0
748.375,9.0190,2.0016,0.6153,0.3866,-0.3624,-1.2540,-40.5000,17.4000,9.7500,8.5928,-2.4660,4.2234,0.3749,-1.8429,-1.2108,-66.9000,26.4000,-18.6000,2.0600,2.9300,-7.5100,-1.5697,-1.8675,-1.1988,-22.5000,-23.0000,16.7500,193.9375,47.8125,-175.1875,0
